subj_idx,cond,trial,is_surprise,is_self,response,feedback,rt,split_by,q_init
1,control_stranger,1,control,stranger,0,0,3.644,2,0.5
1,control_stranger,2,control,stranger,1,1,0.853,2,0.5
1,control_stranger,3,control,stranger,1,1,0.388,2,0.5
1,control_stranger,4,control,stranger,1,1,1.098,2,0.5
1,control_stranger,5,control,stranger,1,0,0.478,2,0.5
1,control_stranger,6,control,stranger,0,0,0.558,2,0.5
1,control_stranger,7,control,stranger,0,0,0.48,2,0.5
1,control_stranger,8,control,stranger,0,0,0.576,2,0.5
1,control_stranger,9,control,stranger,1,0,1.073,2,0.5
1,control_stranger,10,control,stranger,0,0,1.454,2,0.5
1,control_stranger,11,control,stranger,0,0,0.646,2,0.5
1,control_stranger,12,control,stranger,0,0,0.394,2,0.5
1,control_stranger,13,control,stranger,0,0,0.565,2,0.5
1,control_stranger,14,control,stranger,1,1,0.786,2,0.5
1,control_stranger,15,control,stranger,1,0,0.394,2,0.5
1,control_stranger,16,control,stranger,0,0,0.876,2,0.5
1,control_stranger,17,control,stranger,0,0,1.186,2,0.5
1,control_stranger,18,control,stranger,0,0,0.817,2,0.5
1,control_stranger,19,control,stranger,1,1,0.425,2,0.5
1,control_stranger,20,control,stranger,0,0,1.357,2,0.5
1,control_stranger,21,control,stranger,1,1,0.599,2,0.5
1,control_stranger,22,control,stranger,1,1,0.608,2,0.5
1,control_stranger,23,control,stranger,1,0,0.749,2,0.5
1,control_stranger,24,control,stranger,0,0,0.83,2,0.5
1,control_stranger,25,control,stranger,0,1,1.212,2,0.5
1,control_stranger,26,control,stranger,0,1,0.616,2,0.5
1,control_stranger,27,control,stranger,0,1,0.981,2,0.5
1,control_stranger,28,control,stranger,0,0,0.504,2,0.5
1,control_stranger,29,control,stranger,0,1,0.752,2,0.5
1,control_stranger,30,control,stranger,0,1,0.967,2,0.5
1,control_stranger,31,control,stranger,1,1,0.783,2,0.5
1,control_stranger,32,control,stranger,1,0,0.645,2,0.5
1,control_stranger,33,control,stranger,0,0,0.814,2,0.5
1,control_stranger,34,control,stranger,1,1,0.353,2,0.5
1,control_stranger,35,control,stranger,1,0,0.5,2,0.5
1,control_stranger,36,control,stranger,0,1,0.97,2,0.5
1,control_stranger,37,control,stranger,0,0,0.913,2,0.5
1,control_stranger,38,control,stranger,0,1,1.154,2,0.5
1,control_stranger,39,control,stranger,0,1,0.865,2,0.5
1,control_stranger,40,control,stranger,0,1,1.379,2,0.5
1,control_stranger,41,control,stranger,1,0,0.502,2,0.5
1,control_stranger,42,control,stranger,1,0,0.863,2,0.5
1,control_stranger,43,control,stranger,0,1,0.66,2,0.5
1,control_stranger,44,control,stranger,0,1,1.033,2,0.5
1,control_stranger,45,control,stranger,0,1,0.738,2,0.5
1,control_stranger,46,control,stranger,0,1,1.032,2,0.5
1,control_stranger,47,control,stranger,0,1,0.531,2,0.5
1,control_stranger,48,control,stranger,0,1,1.163,2,0.5
1,control_stranger,49,control,stranger,0,1,1.827,2,0.5
1,control_stranger,50,control,stranger,0,1,0.517,2,0.5
1,surprise_stranger,1,surprise,stranger,0,0,0.864,4,0.5
1,surprise_stranger,2,surprise,stranger,0,0,0.59,4,0.5
1,surprise_stranger,3,surprise,stranger,1,1,0.747,4,0.5
1,surprise_stranger,4,surprise,stranger,1,1,0.767,4,0.5
1,surprise_stranger,5,surprise,stranger,1,0,1.305,4,0.5
1,surprise_stranger,6,surprise,stranger,0,1,1.492,4,0.5
1,surprise_stranger,7,surprise,stranger,1,0,0.541,4,0.5
1,surprise_stranger,8,surprise,stranger,0,1,0.855,4,0.5
1,surprise_stranger,9,surprise,stranger,0,0,1.451,4,0.5
1,surprise_stranger,10,surprise,stranger,0,0,0.651,4,0.5
1,surprise_stranger,11,surprise,stranger,0,1,0.712,4,0.5
1,surprise_stranger,12,surprise,stranger,0,0,0.593,4,0.5
1,surprise_stranger,13,surprise,stranger,0,0,2.241,4,0.5
1,surprise_stranger,14,surprise,stranger,0,0,0.736,4,0.5
1,surprise_stranger,15,surprise,stranger,1,1,0.967,4,0.5
1,surprise_stranger,16,surprise,stranger,0,0,0.891,4,0.5
1,surprise_stranger,17,surprise,stranger,1,1,0.867,4,0.5
1,surprise_stranger,18,surprise,stranger,1,1,0.685,4,0.5
1,surprise_stranger,19,surprise,stranger,1,1,0.757,4,0.5
1,surprise_stranger,20,surprise,stranger,1,1,0.892,4,0.5
1,surprise_stranger,21,surprise,stranger,0,0,0.609,4,0.5
1,surprise_stranger,22,surprise,stranger,0,0,0.823,4,0.5
1,surprise_stranger,23,surprise,stranger,1,1,0.414,4,0.5
1,surprise_stranger,24,surprise,stranger,1,1,0.853,4,0.5
1,surprise_stranger,25,surprise,stranger,1,1,0.693,4,0.5
1,surprise_stranger,26,surprise,stranger,1,1,0.529,4,0.5
1,surprise_stranger,27,surprise,stranger,1,0,0.894,4,0.5
1,surprise_stranger,28,surprise,stranger,0,1,0.77,4,0.5
1,surprise_stranger,29,surprise,stranger,0,1,0.789,4,0.5
1,surprise_stranger,30,surprise,stranger,0,1,0.802,4,0.5
1,surprise_stranger,31,surprise,stranger,1,0,0.71,4,0.5
1,surprise_stranger,32,surprise,stranger,0,1,1.129,4,0.5
1,surprise_stranger,33,surprise,stranger,0,1,0.443,4,0.5
1,surprise_stranger,34,surprise,stranger,0,1,0.794,4,0.5
1,surprise_stranger,35,surprise,stranger,0,1,0.688,4,0.5
1,surprise_stranger,36,surprise,stranger,0,1,0.832,4,0.5
1,surprise_stranger,37,surprise,stranger,0,1,1.143,4,0.5
1,surprise_stranger,38,surprise,stranger,0,0,0.817,4,0.5
1,surprise_stranger,39,surprise,stranger,0,1,0.752,4,0.5
1,surprise_stranger,40,surprise,stranger,0,0,0.968,4,0.5
1,surprise_stranger,41,surprise,stranger,0,1,0.733,4,0.5
1,surprise_stranger,42,surprise,stranger,0,0,0.833,4,0.5
1,surprise_stranger,43,surprise,stranger,0,1,1.833,4,0.5
1,surprise_stranger,44,surprise,stranger,0,1,0.942,4,0.5
1,surprise_stranger,45,surprise,stranger,0,0,0.924,4,0.5
1,surprise_stranger,46,surprise,stranger,0,1,0.438,4,0.5
1,surprise_stranger,47,surprise,stranger,0,1,0.531,4,0.5
1,surprise_stranger,48,surprise,stranger,0,1,0.817,4,0.5
1,surprise_stranger,49,surprise,stranger,0,0,0.75,4,0.5
1,surprise_stranger,50,surprise,stranger,1,0,0.867,4,0.5
2,control_self,1,control,self,0,0,3.612,1,0.5
2,control_self,2,control,self,0,0,2.604,1,0.5
2,control_self,3,control,self,1,1,7.355,1,0.5
2,control_self,4,control,self,0,0,2.654,1,0.5
2,control_self,5,control,self,1,0,1.466,1,0.5
2,control_self,6,control,self,0,0,1.019,1,0.5
2,control_self,7,control,self,1,1,0.839,1,0.5
2,control_self,8,control,self,1,1,1.086,1,0.5
2,control_self,9,control,self,1,1,1.005,1,0.5
2,control_self,10,control,self,1,1,1.954,1,0.5
2,control_self,11,control,self,1,0,1.043,1,0.5
2,control_self,12,control,self,0,0,1.007,1,0.5
2,control_self,13,control,self,1,1,1.767,1,0.5
2,control_self,14,control,self,0,1,0.948,1,0.5
2,control_self,15,control,self,0,0,0.945,1,0.5
2,control_self,16,control,self,0,0,1.24,1,0.5
2,control_self,17,control,self,1,0,1.118,1,0.5
2,control_self,18,control,self,0,0,0.953,1,0.5
2,control_self,19,control,self,1,0,1.315,1,0.5
2,control_self,20,control,self,1,1,1.648,1,0.5
2,control_self,21,control,self,0,0,1.262,1,0.5
2,control_self,22,control,self,0,0,1.795,1,0.5
2,control_self,23,control,self,1,1,1.252,1,0.5
2,control_self,24,control,self,1,1,1.177,1,0.5
2,control_self,25,control,self,1,1,1.276,1,0.5
2,control_self,26,control,self,1,0,0.85,1,0.5
2,control_self,27,control,self,0,1,0.968,1,0.5
2,control_self,28,control,self,0,1,0.654,1,0.5
2,control_self,29,control,self,0,1,0.733,1,0.5
2,control_self,30,control,self,1,0,1.994,1,0.5
2,control_self,31,control,self,0,1,1.139,1,0.5
2,control_self,32,control,self,0,1,0.897,1,0.5
2,control_self,33,control,self,0,0,0.586,1,0.5
2,control_self,34,control,self,1,0,1.487,1,0.5
2,control_self,35,control,self,1,0,0.702,1,0.5
2,control_self,36,control,self,1,0,0.902,1,0.5
2,control_self,37,control,self,0,1,0.708,1,0.5
2,control_self,38,control,self,0,0,3.591,1,0.5
2,control_self,39,control,self,1,1,0.983,1,0.5
2,control_self,40,control,self,0,1,2.743,1,0.5
2,control_self,41,control,self,0,1,5.806,1,0.5
2,control_self,42,control,self,0,1,1.734,1,0.5
2,control_self,43,control,self,0,0,0.829,1,0.5
2,control_self,44,control,self,1,0,1.049,1,0.5
2,control_self,45,control,self,0,1,1.301,1,0.5
2,control_self,46,control,self,1,0,1.622,1,0.5
2,control_self,47,control,self,0,1,1.365,1,0.5
2,control_self,48,control,self,0,1,0.554,1,0.5
2,control_self,49,control,self,0,1,1.104,1,0.5
2,control_self,50,control,self,0,0,1.452,1,0.5
2,control_stranger,1,control,stranger,0,0,5.542,2,0.5
2,control_stranger,2,control,stranger,0,0,2.19,2,0.5
2,control_stranger,3,control,stranger,1,1,2.432,2,0.5
2,control_stranger,4,control,stranger,1,1,1.33,2,0.5
2,control_stranger,5,control,stranger,0,0,0.893,2,0.5
2,control_stranger,6,control,stranger,0,0,0.897,2,0.5
2,control_stranger,7,control,stranger,1,1,0.851,2,0.5
2,control_stranger,8,control,stranger,1,1,1.062,2,0.5
2,control_stranger,9,control,stranger,1,1,3.853,2,0.5
2,control_stranger,10,control,stranger,0,0,1.57,2,0.5
2,control_stranger,11,control,stranger,1,0,0.833,2,0.5
2,control_stranger,12,control,stranger,0,0,0.483,2,0.5
2,control_stranger,13,control,stranger,0,0,0.985,2,0.5
2,control_stranger,14,control,stranger,0,0,0.712,2,0.5
2,control_stranger,15,control,stranger,1,1,0.593,2,0.5
2,control_stranger,16,control,stranger,1,1,0.991,2,0.5
2,control_stranger,17,control,stranger,1,0,0.722,2,0.5
2,control_stranger,18,control,stranger,0,0,0.584,2,0.5
2,control_stranger,19,control,stranger,1,1,0.634,2,0.5
2,control_stranger,20,control,stranger,1,1,2.833,2,0.5
2,control_stranger,21,control,stranger,0,0,0.693,2,0.5
2,control_stranger,22,control,stranger,1,1,1.311,2,0.5
2,control_stranger,23,control,stranger,1,0,0.655,2,0.5
2,control_stranger,24,control,stranger,0,1,1.098,2,0.5
2,control_stranger,25,control,stranger,1,0,0.974,2,0.5
2,control_stranger,26,control,stranger,1,0,0.431,2,0.5
2,control_stranger,27,control,stranger,0,1,0.726,2,0.5
2,control_stranger,28,control,stranger,0,0,0.455,2,0.5
2,control_stranger,29,control,stranger,1,0,1.19,2,0.5
2,control_stranger,30,control,stranger,1,1,0.783,2,0.5
2,control_stranger,31,control,stranger,1,0,1.172,2,0.5
2,control_stranger,32,control,stranger,0,1,1.209,2,0.5
2,control_stranger,33,control,stranger,0,1,0.785,2,0.5
2,control_stranger,34,control,stranger,0,1,0.792,2,0.5
2,control_stranger,35,control,stranger,0,0,0.487,2,0.5
2,control_stranger,36,control,stranger,1,0,1.042,2,0.5
2,control_stranger,37,control,stranger,0,1,1.182,2,0.5
2,control_stranger,38,control,stranger,0,1,0.843,2,0.5
2,control_stranger,39,control,stranger,0,1,0.882,2,0.5
2,control_stranger,40,control,stranger,0,1,0.658,2,0.5
2,control_stranger,41,control,stranger,1,0,0.714,2,0.5
2,control_stranger,42,control,stranger,0,1,0.68,2,0.5
2,control_stranger,43,control,stranger,0,0,1.116,2,0.5
2,control_stranger,44,control,stranger,1,1,0.848,2,0.5
2,control_stranger,45,control,stranger,1,0,1.25,2,0.5
2,control_stranger,46,control,stranger,0,1,0.941,2,0.5
2,control_stranger,47,control,stranger,0,1,0.564,2,0.5
2,control_stranger,48,control,stranger,0,1,0.764,2,0.5
2,control_stranger,49,control,stranger,0,1,0.496,2,0.5
2,control_stranger,50,control,stranger,0,1,0.824,2,0.5
2,surprise_self,1,surprise,self,0,0,2.102,3,0.5
2,surprise_self,2,surprise,self,1,1,0.684,3,0.5
2,surprise_self,3,surprise,self,1,1,0.401,3,0.5
2,surprise_self,4,surprise,self,1,1,1.902,3,0.5
2,surprise_self,5,surprise,self,1,1,0.6,3,0.5
2,surprise_self,6,surprise,self,1,1,0.738,3,0.5
2,surprise_self,7,surprise,self,1,1,0.421,3,0.5
2,surprise_self,8,surprise,self,1,1,1.087,3,0.5
2,surprise_self,9,surprise,self,0,0,0.879,3,0.5
2,surprise_self,10,surprise,self,1,1,2.14,3,0.5
2,surprise_self,11,surprise,self,1,0,1.132,3,0.5
2,surprise_self,12,surprise,self,0,1,1.025,3,0.5
2,surprise_self,13,surprise,self,0,0,1.514,3,0.5
2,surprise_self,14,surprise,self,0,0,1.289,3,0.5
2,surprise_self,15,surprise,self,1,1,0.849,3,0.5
2,surprise_self,16,surprise,self,1,1,1.096,3,0.5
2,surprise_self,17,surprise,self,1,0,2.885,3,0.5
2,surprise_self,18,surprise,self,0,0,2.025,3,0.5
2,surprise_self,19,surprise,self,1,0,1.104,3,0.5
2,surprise_self,20,surprise,self,0,0,1.938,3,0.5
2,surprise_self,21,surprise,self,1,1,0.924,3,0.5
2,surprise_self,22,surprise,self,1,1,0.713,3,0.5
2,surprise_self,23,surprise,self,1,0,0.8,3,0.5
2,surprise_self,24,surprise,self,0,0,0.578,3,0.5
2,surprise_self,25,surprise,self,1,1,0.537,3,0.5
2,surprise_self,26,surprise,self,1,0,1.09,3,0.5
2,surprise_self,27,surprise,self,1,1,2.003,3,0.5
2,surprise_self,28,surprise,self,1,0,2.215,3,0.5
2,surprise_self,29,surprise,self,1,0,1.288,3,0.5
2,surprise_self,30,surprise,self,1,0,4.804,3,0.5
2,surprise_self,31,surprise,self,0,1,1.413,3,0.5
2,surprise_self,32,surprise,self,0,0,0.978,3,0.5
2,surprise_self,33,surprise,self,1,0,1.051,3,0.5
2,surprise_self,34,surprise,self,1,0,1.216,3,0.5
2,surprise_self,35,surprise,self,0,1,0.711,3,0.5
2,surprise_self,36,surprise,self,0,1,0.678,3,0.5
2,surprise_self,37,surprise,self,1,0,1.016,3,0.5
2,surprise_self,38,surprise,self,1,1,1.376,3,0.5
2,surprise_self,39,surprise,self,1,0,0.937,3,0.5
2,surprise_self,40,surprise,self,0,1,1.88,3,0.5
2,surprise_self,41,surprise,self,0,1,0.841,3,0.5
2,surprise_self,42,surprise,self,0,1,1.081,3,0.5
2,surprise_self,43,surprise,self,0,1,1.298,3,0.5
2,surprise_self,44,surprise,self,0,1,1.339,3,0.5
2,surprise_self,45,surprise,self,1,0,2.366,3,0.5
2,surprise_self,46,surprise,self,1,1,1.597,3,0.5
2,surprise_self,47,surprise,self,1,0,0.906,3,0.5
2,surprise_self,48,surprise,self,1,0,0.875,3,0.5
2,surprise_self,49,surprise,self,0,1,0.809,3,0.5
2,surprise_self,50,surprise,self,0,0,1.866,3,0.5
2,surprise_stranger,1,surprise,stranger,1,1,1.268,4,0.5
2,surprise_stranger,2,surprise,stranger,0,0,1.087,4,0.5
2,surprise_stranger,3,surprise,stranger,1,1,1.201,4,0.5
2,surprise_stranger,4,surprise,stranger,0,0,1.876,4,0.5
2,surprise_stranger,5,surprise,stranger,1,1,1.048,4,0.5
2,surprise_stranger,6,surprise,stranger,0,1,0.96,4,0.5
2,surprise_stranger,7,surprise,stranger,1,1,1.19,4,0.5
2,surprise_stranger,8,surprise,stranger,1,0,1.069,4,0.5
2,surprise_stranger,9,surprise,stranger,1,1,0.804,4,0.5
2,surprise_stranger,10,surprise,stranger,0,0,2.093,4,0.5
2,surprise_stranger,11,surprise,stranger,1,1,1.139,4,0.5
2,surprise_stranger,12,surprise,stranger,1,1,0.877,4,0.5
2,surprise_stranger,13,surprise,stranger,1,1,0.88,4,0.5
2,surprise_stranger,14,surprise,stranger,1,1,0.498,4,0.5
2,surprise_stranger,15,surprise,stranger,1,1,0.899,4,0.5
2,surprise_stranger,16,surprise,stranger,1,1,0.982,4,0.5
2,surprise_stranger,17,surprise,stranger,0,0,0.804,4,0.5
2,surprise_stranger,18,surprise,stranger,1,1,0.559,4,0.5
2,surprise_stranger,19,surprise,stranger,1,1,1.236,4,0.5
2,surprise_stranger,20,surprise,stranger,1,1,0.958,4,0.5
2,surprise_stranger,21,surprise,stranger,1,1,2.001,4,0.5
2,surprise_stranger,22,surprise,stranger,1,0,0.672,4,0.5
2,surprise_stranger,23,surprise,stranger,0,1,1.245,4,0.5
2,surprise_stranger,24,surprise,stranger,1,1,6.67,4,0.5
2,surprise_stranger,25,surprise,stranger,0,1,1.019,4,0.5
2,surprise_stranger,26,surprise,stranger,0,1,1.112,4,0.5
2,surprise_stranger,27,surprise,stranger,0,0,1.687,4,0.5
2,surprise_stranger,28,surprise,stranger,1,1,0.532,4,0.5
2,surprise_stranger,29,surprise,stranger,1,0,1.18,4,0.5
2,surprise_stranger,30,surprise,stranger,0,0,1.666,4,0.5
2,surprise_stranger,31,surprise,stranger,1,0,1.0145,4,0.5
2,surprise_stranger,32,surprise,stranger,1,0,0.764,4,0.5
2,surprise_stranger,33,surprise,stranger,1,0,0.561,4,0.5
2,surprise_stranger,34,surprise,stranger,0,1,0.721,4,0.5
2,surprise_stranger,35,surprise,stranger,0,1,1.039,4,0.5
2,surprise_stranger,36,surprise,stranger,0,1,0.792,4,0.5
2,surprise_stranger,37,surprise,stranger,0,1,0.726,4,0.5
2,surprise_stranger,38,surprise,stranger,1,0,1.273,4,0.5
2,surprise_stranger,39,surprise,stranger,1,0,1.296,4,0.5
2,surprise_stranger,40,surprise,stranger,1,0,0.584,4,0.5
2,surprise_stranger,41,surprise,stranger,0,1,0.633,4,0.5
2,surprise_stranger,42,surprise,stranger,1,1,0.852,4,0.5
2,surprise_stranger,43,surprise,stranger,1,0,0.854,4,0.5
2,surprise_stranger,44,surprise,stranger,1,0,1.168,4,0.5
2,surprise_stranger,45,surprise,stranger,0,0,0.984,4,0.5
2,surprise_stranger,46,surprise,stranger,0,1,1.223,4,0.5
2,surprise_stranger,47,surprise,stranger,1,0,0.901,4,0.5
2,surprise_stranger,48,surprise,stranger,0,1,0.609,4,0.5
2,surprise_stranger,49,surprise,stranger,1,0,1.495,4,0.5
2,surprise_stranger,50,surprise,stranger,1,0,0.992,4,0.5
3,control_self,1,control,self,1,1,6.651,1,0.5
3,control_self,3,control,self,1,1,3.475,1,0.5
3,control_self,4,control,self,1,0,1.496,1,0.5
3,control_self,5,control,self,1,1,1.918,1,0.5
3,control_self,6,control,self,1,1,2.255,1,0.5
3,control_self,8,control,self,1,1,0.793,1,0.5
3,control_self,9,control,self,1,1,3.13,1,0.5
3,control_self,10,control,self,0,0,2.148,1,0.5
3,control_self,11,control,self,1,1,1.134,1,0.5
3,control_self,13,control,self,1,1,1.59,1,0.5
3,control_self,14,control,self,1,1,3.412,1,0.5
3,control_self,15,control,self,1,1,5.511,1,0.5
3,control_self,16,control,self,1,1,1.674,1,0.5
3,control_self,18,control,self,1,0,1.535,1,0.5
3,control_self,19,control,self,0,0,1.203,1,0.5
3,control_self,20,control,self,1,1,1.873,1,0.5
3,control_self,21,control,self,1,1,1.709,1,0.5
3,control_self,23,control,self,0,1,1.34,1,0.5
3,control_self,24,control,self,0,0,2.299,1,0.5
3,control_self,25,control,self,1,1,1.134,1,0.5
3,control_self,26,control,self,0,1,2.137,1,0.5
3,control_self,28,control,self,0,1,1.254,1,0.5
3,control_self,29,control,self,0,1,0.704,1,0.5
3,control_self,30,control,self,1,1,1.455,1,0.5
3,control_self,31,control,self,1,0,1.757,1,0.5
3,control_self,33,control,self,0,1,1.843,1,0.5
3,control_self,34,control,self,1,0,1.903,1,0.5
3,control_self,35,control,self,0,0,1.513,1,0.5
3,control_self,36,control,self,0,1,0.815,1,0.5
3,control_self,38,control,self,0,0,1.534,1,0.5
3,control_self,39,control,self,0,0,0.595,1,0.5
3,control_self,40,control,self,1,0,1.435,1,0.5
3,control_self,41,control,self,0,1,0.964,1,0.5
3,control_self,43,control,self,0,0,0.575,1,0.5
3,control_self,44,control,self,1,0,1.961,1,0.5
3,control_self,45,control,self,0,1,0.827,1,0.5
3,control_self,46,control,self,0,1,1.358,1,0.5
3,control_self,48,control,self,0,1,1.252,1,0.5
3,control_self,49,control,self,0,1,2.998,1,0.5
3,control_self,50,control,self,0,0,1.533,1,0.5
3,control_stranger,1,control,stranger,1,1,6.427,2,0.5
3,control_stranger,2,control,stranger,1,1,0.968,2,0.5
3,control_stranger,3,control,stranger,1,1,0.945,2,0.5
3,control_stranger,4,control,stranger,1,1,0.726,2,0.5
3,control_stranger,5,control,stranger,1,1,1.751,2,0.5
3,control_stranger,6,control,stranger,1,1,1.285,2,0.5
3,control_stranger,7,control,stranger,1,1,0.43,2,0.5
3,control_stranger,8,control,stranger,1,0,0.976,2,0.5
3,control_stranger,9,control,stranger,0,1,1.21,2,0.5
3,control_stranger,10,control,stranger,0,0,2.769,2,0.5
3,control_stranger,11,control,stranger,1,1,1.299,2,0.5
3,control_stranger,12,control,stranger,0,1,0.946,2,0.5
3,control_stranger,13,control,stranger,0,0,0.81,2,0.5
3,control_stranger,14,control,stranger,0,0,0.638,2,0.5
3,control_stranger,15,control,stranger,1,1,1.514,2,0.5
3,control_stranger,16,control,stranger,0,0,2.791,2,0.5
3,control_stranger,17,control,stranger,1,1,1.378,2,0.5
3,control_stranger,18,control,stranger,0,0,0.703,2,0.5
3,control_stranger,19,control,stranger,1,1,0.819,2,0.5
3,control_stranger,20,control,stranger,1,0,1.0145,2,0.5
3,control_stranger,21,control,stranger,1,0,6.578,2,0.5
3,control_stranger,22,control,stranger,0,0,1.209,2,0.5
3,control_stranger,23,control,stranger,1,1,4.673,2,0.5
3,control_stranger,24,control,stranger,0,0,0.813,2,0.5
3,control_stranger,25,control,stranger,1,1,1.464,2,0.5
3,control_stranger,26,control,stranger,1,0,0.918,2,0.5
3,control_stranger,27,control,stranger,1,0,1.457,2,0.5
3,control_stranger,28,control,stranger,1,0,1.786,2,0.5
3,control_stranger,29,control,stranger,1,0,2.071,2,0.5
3,control_stranger,30,control,stranger,0,0,4.942,2,0.5
3,control_stranger,31,control,stranger,0,1,1.146,2,0.5
3,control_stranger,32,control,stranger,1,0,0.553,2,0.5
3,control_stranger,33,control,stranger,1,0,0.501,2,0.5
3,control_stranger,34,control,stranger,0,1,1.472,2,0.5
3,control_stranger,35,control,stranger,0,0,0.446,2,0.5
3,control_stranger,36,control,stranger,0,1,1.051,2,0.5
3,control_stranger,37,control,stranger,1,0,1.182,2,0.5
3,control_stranger,38,control,stranger,1,0,0.616,2,0.5
3,control_stranger,39,control,stranger,1,0,1.924,2,0.5
3,control_stranger,40,control,stranger,0,0,2.929,2,0.5
3,control_stranger,41,control,stranger,1,0,0.88,2,0.5
3,control_stranger,42,control,stranger,0,0,1.577,2,0.5
3,control_stranger,43,control,stranger,1,1,0.851,2,0.5
3,control_stranger,44,control,stranger,1,1,1.398,2,0.5
3,control_stranger,45,control,stranger,1,0,1.038,2,0.5
3,control_stranger,46,control,stranger,1,1,1.195,2,0.5
3,control_stranger,47,control,stranger,1,0,0.68,2,0.5
3,control_stranger,48,control,stranger,1,0,0.441,2,0.5
3,control_stranger,49,control,stranger,1,0,0.873,2,0.5
3,control_stranger,50,control,stranger,0,1,0.665,2,0.5
3,surprise_self,1,surprise,self,1,0,6.265,3,0.5
3,surprise_self,2,surprise,self,0,0,1.563,3,0.5
3,surprise_self,3,surprise,self,0,0,1.101,3,0.5
3,surprise_self,4,surprise,self,0,1,0.724,3,0.5
3,surprise_self,5,surprise,self,0,0,0.556,3,0.5
3,surprise_self,6,surprise,self,0,0,2.01,3,0.5
3,surprise_self,7,surprise,self,0,1,1.224,3,0.5
3,surprise_self,8,surprise,self,0,1,1.048,3,0.5
3,surprise_self,9,surprise,self,0,1,1.156,3,0.5
3,surprise_self,10,surprise,self,1,1,2.428,3,0.5
3,surprise_self,11,surprise,self,1,1,1.822,3,0.5
3,surprise_self,12,surprise,self,1,1,1.604,3,0.5
3,surprise_self,13,surprise,self,1,1,1.874,3,0.5
3,surprise_self,14,surprise,self,0,0,2.204,3,0.5
3,surprise_self,15,surprise,self,0,0,1.075,3,0.5
3,surprise_self,16,surprise,self,1,1,1.385,3,0.5
3,surprise_self,17,surprise,self,1,1,1.304,3,0.5
3,surprise_self,18,surprise,self,1,1,1.44,3,0.5
3,surprise_self,19,surprise,self,1,1,0.793,3,0.5
3,surprise_self,20,surprise,self,0,0,3.244,3,0.5
3,surprise_self,21,surprise,self,1,1,1.409,3,0.5
3,surprise_self,22,surprise,self,1,1,3.788,3,0.5
3,surprise_self,23,surprise,self,1,1,0.896,3,0.5
3,surprise_self,24,surprise,self,1,1,0.618,3,0.5
3,surprise_self,25,surprise,self,1,1,1.002,3,0.5
3,surprise_self,26,surprise,self,0,0,3.314,3,0.5
3,surprise_self,27,surprise,self,1,1,0.866,3,0.5
3,surprise_self,28,surprise,self,1,0,1.589,3,0.5
3,surprise_self,29,surprise,self,0,1,1.152,3,0.5
3,surprise_self,30,surprise,self,1,0,2.743,3,0.5
3,surprise_self,31,surprise,self,0,0,1.558,3,0.5
3,surprise_self,32,surprise,self,0,1,1.16,3,0.5
3,surprise_self,33,surprise,self,0,1,1.284,3,0.5
3,surprise_self,34,surprise,self,0,1,2.471,3,0.5
3,surprise_self,35,surprise,self,0,1,0.71,3,0.5
3,surprise_self,36,surprise,self,0,1,1.334,3,0.5
3,surprise_self,37,surprise,self,0,0,0.376,3,0.5
3,surprise_self,38,surprise,self,1,0,1.539,3,0.5
3,surprise_self,39,surprise,self,1,0,1.14,3,0.5
3,surprise_self,40,surprise,self,1,0,6.425,3,0.5
3,surprise_self,41,surprise,self,1,0,1.546,3,0.5
3,surprise_self,42,surprise,self,0,1,2.05,3,0.5
3,surprise_self,43,surprise,self,0,1,0.533,3,0.5
3,surprise_self,44,surprise,self,0,1,0.523,3,0.5
3,surprise_self,45,surprise,self,0,0,0.54,3,0.5
3,surprise_self,46,surprise,self,0,1,3.838,3,0.5
3,surprise_self,47,surprise,self,1,0,1.921,3,0.5
3,surprise_self,48,surprise,self,0,1,0.861,3,0.5
3,surprise_self,49,surprise,self,0,1,1.019,3,0.5
3,surprise_self,50,surprise,self,1,0,1.328,3,0.5
3,surprise_stranger,1,surprise,stranger,1,1,3.573,4,0.5
3,surprise_stranger,2,surprise,stranger,1,1,1.955,4,0.5
3,surprise_stranger,3,surprise,stranger,1,1,2.422,4,0.5
3,surprise_stranger,4,surprise,stranger,1,1,2.486,4,0.5
3,surprise_stranger,5,surprise,stranger,1,1,3.298,4,0.5
3,surprise_stranger,6,surprise,stranger,1,1,1.978,4,0.5
3,surprise_stranger,7,surprise,stranger,1,1,1.062,4,0.5
3,surprise_stranger,8,surprise,stranger,1,1,0.556,4,0.5
3,surprise_stranger,9,surprise,stranger,1,0,6.11,4,0.5
3,surprise_stranger,10,surprise,stranger,0,0,5.696,4,0.5
3,surprise_stranger,11,surprise,stranger,0,0,2.535,4,0.5
3,surprise_stranger,12,surprise,stranger,1,1,8.526,4,0.5
3,surprise_stranger,13,surprise,stranger,1,0,1.36,4,0.5
3,surprise_stranger,14,surprise,stranger,1,1,1.453,4,0.5
3,surprise_stranger,15,surprise,stranger,1,1,0.583,4,0.5
3,surprise_stranger,16,surprise,stranger,1,1,0.658,4,0.5
3,surprise_stranger,17,surprise,stranger,1,1,1.509,4,0.5
3,surprise_stranger,18,surprise,stranger,1,0,1.796,4,0.5
3,surprise_stranger,19,surprise,stranger,0,1,0.981,4,0.5
3,surprise_stranger,20,surprise,stranger,0,0,6.871,4,0.5
3,surprise_stranger,21,surprise,stranger,0,0,1.171,4,0.5
3,surprise_stranger,22,surprise,stranger,0,0,1.124,4,0.5
3,surprise_stranger,23,surprise,stranger,1,1,0.773,4,0.5
3,surprise_stranger,24,surprise,stranger,1,0,2.445,4,0.5
3,surprise_stranger,25,surprise,stranger,0,0,1.181,4,0.5
3,surprise_stranger,26,surprise,stranger,1,0,0.925,4,0.5
3,surprise_stranger,27,surprise,stranger,0,0,1.145,4,0.5
3,surprise_stranger,28,surprise,stranger,0,1,0.944,4,0.5
3,surprise_stranger,29,surprise,stranger,0,1,0.87,4,0.5
3,surprise_stranger,30,surprise,stranger,0,0,1.367,4,0.5
3,surprise_stranger,31,surprise,stranger,1,0,0.956,4,0.5
3,surprise_stranger,32,surprise,stranger,1,1,1.292,4,0.5
3,surprise_stranger,33,surprise,stranger,1,0,0.801,4,0.5
3,surprise_stranger,34,surprise,stranger,1,0,1.343,4,0.5
3,surprise_stranger,35,surprise,stranger,0,1,0.904,4,0.5
3,surprise_stranger,36,surprise,stranger,1,1,1.368,4,0.5
3,surprise_stranger,37,surprise,stranger,0,1,2.434,4,0.5
3,surprise_stranger,38,surprise,stranger,0,1,3.161,4,0.5
3,surprise_stranger,39,surprise,stranger,0,1,1.409,4,0.5
3,surprise_stranger,40,surprise,stranger,1,1,2.631,4,0.5
3,surprise_stranger,41,surprise,stranger,0,0,1.0145,4,0.5
3,surprise_stranger,42,surprise,stranger,0,1,4.698,4,0.5
3,surprise_stranger,43,surprise,stranger,1,0,5.206,4,0.5
3,surprise_stranger,44,surprise,stranger,1,0,1.323,4,0.5
3,surprise_stranger,45,surprise,stranger,0,1,0.946,4,0.5
3,surprise_stranger,46,surprise,stranger,0,1,0.538,4,0.5
3,surprise_stranger,47,surprise,stranger,0,1,2.241,4,0.5
3,surprise_stranger,48,surprise,stranger,0,1,1.619,4,0.5
3,surprise_stranger,49,surprise,stranger,1,0,3.425,4,0.5
3,surprise_stranger,50,surprise,stranger,0,1,1.143,4,0.5
4,control_self,2,control,self,1,0,4.101,1,0.5
4,control_self,7,control,self,1,1,1.183,1,0.5
4,control_self,12,control,self,1,1,1.164,1,0.5
4,control_self,17,control,self,1,1,2.195,1,0.5
4,control_self,22,control,self,0,1,1.799,1,0.5
4,control_self,27,control,self,1,0,1.051,1,0.5
4,control_self,32,control,self,1,0,1.169,1,0.5
4,control_self,37,control,self,0,1,1.797,1,0.5
4,control_self,42,control,self,0,1,1.546,1,0.5
4,control_self,47,control,self,0,1,1.034,1,0.5
5,control_stranger,1,control,stranger,0,0,2.942,2,0.5
5,control_stranger,1,control,stranger,0,0,0.911,2,0.5
5,control_stranger,2,control,stranger,1,1,0.853,2,0.5
5,control_stranger,2,control,stranger,1,1,1.149,2,0.5
5,control_stranger,3,control,stranger,1,1,0.581,2,0.5
5,control_stranger,3,control,stranger,1,1,0.505,2,0.5
5,control_stranger,4,control,stranger,1,1,0.988,2,0.5
5,control_stranger,4,control,stranger,1,1,2.18,2,0.5
5,control_stranger,5,control,stranger,1,1,0.745,2,0.5
5,control_stranger,5,control,stranger,1,1,1.09,2,0.5
5,control_stranger,6,control,stranger,1,1,0.437,2,0.5
5,control_stranger,6,control,stranger,1,1,2.102,2,0.5
5,control_stranger,7,control,stranger,1,1,2.027,2,0.5
5,control_stranger,7,control,stranger,0,1,0.577,2,0.5
5,control_stranger,8,control,stranger,1,1,3.123,2,0.5
5,control_stranger,8,control,stranger,1,0,0.842,2,0.5
5,control_stranger,9,control,stranger,1,0,0.613,2,0.5
5,control_stranger,9,control,stranger,0,0,0.914,2,0.5
5,control_stranger,10,control,stranger,0,0,0.933,2,0.5
5,control_stranger,10,control,stranger,1,1,1.291,2,0.5
5,control_stranger,11,control,stranger,1,1,0.893,2,0.5
5,control_stranger,11,control,stranger,0,1,1.143,2,0.5
5,control_stranger,12,control,stranger,1,0,0.744,2,0.5
5,control_stranger,12,control,stranger,0,0,1.041,2,0.5
5,control_stranger,13,control,stranger,1,1,1.293,2,0.5
5,control_stranger,13,control,stranger,1,0,0.957,2,0.5
5,control_stranger,14,control,stranger,1,1,0.462,2,0.5
5,control_stranger,14,control,stranger,0,0,1.509,2,0.5
5,control_stranger,15,control,stranger,1,1,0.328,2,0.5
5,control_stranger,15,control,stranger,1,1,0.392,2,0.5
5,control_stranger,16,control,stranger,1,0,0.622,2,0.5
5,control_stranger,16,control,stranger,1,1,0.503,2,0.5
5,control_stranger,17,control,stranger,0,0,0.812,2,0.5
5,control_stranger,17,control,stranger,0,0,1.018,2,0.5
5,control_stranger,18,control,stranger,0,0,1.099,2,0.5
5,control_stranger,18,control,stranger,0,0,0.924,2,0.5
5,control_stranger,19,control,stranger,0,0,0.635,2,0.5
5,control_stranger,19,control,stranger,0,0,0.315,2,0.5
5,control_stranger,20,control,stranger,0,0,2.877,2,0.5
5,control_stranger,20,control,stranger,0,1,3.414,2,0.5
5,control_stranger,21,control,stranger,1,1,0.893,2,0.5
5,control_stranger,21,control,stranger,1,1,0.827,2,0.5
5,control_stranger,22,control,stranger,1,1,0.542,2,0.5
5,control_stranger,22,control,stranger,1,1,1.13,2,0.5
5,control_stranger,23,control,stranger,1,1,0.848,2,0.5
5,control_stranger,23,control,stranger,1,1,0.721,2,0.5
5,control_stranger,24,control,stranger,1,1,0.382,2,0.5
5,control_stranger,24,control,stranger,1,1,0.82,2,0.5
5,control_stranger,25,control,stranger,1,0,1.989,2,0.5
5,control_stranger,25,control,stranger,1,1,0.935,2,0.5
5,control_stranger,26,control,stranger,1,0,3.195,2,0.5
5,control_stranger,26,control,stranger,1,0,0.916,2,0.5
5,control_stranger,27,control,stranger,0,1,1.197,2,0.5
5,control_stranger,27,control,stranger,0,1,0.816,2,0.5
5,control_stranger,28,control,stranger,0,1,0.375,2,0.5
5,control_stranger,28,control,stranger,0,1,0.527,2,0.5
5,control_stranger,29,control,stranger,0,1,1.858,2,0.5
5,control_stranger,29,control,stranger,0,0,1.013,2,0.5
5,control_stranger,30,control,stranger,0,0,3.631,2,0.5
5,control_stranger,30,control,stranger,0,0,1.093,2,0.5
5,control_stranger,31,control,stranger,0,0,4.254,2,0.5
5,control_stranger,31,control,stranger,0,1,1.624,2,0.5
5,control_stranger,32,control,stranger,1,0,1.607,2,0.5
5,control_stranger,32,control,stranger,0,1,2.616,2,0.5
5,control_stranger,33,control,stranger,1,1,1.947,2,0.5
5,control_stranger,33,control,stranger,1,0,1.465,2,0.5
5,control_stranger,34,control,stranger,1,0,2.182,2,0.5
5,control_stranger,34,control,stranger,0,1,2.643,2,0.5
5,control_stranger,35,control,stranger,0,0,0.78,2,0.5
5,control_stranger,35,control,stranger,0,1,0.989,2,0.5
5,control_stranger,36,control,stranger,0,0,0.497,2,0.5
5,control_stranger,36,control,stranger,0,1,1.244,2,0.5
5,control_stranger,37,control,stranger,0,0,1.291,2,0.5
5,control_stranger,37,control,stranger,0,1,1.623,2,0.5
5,control_stranger,38,control,stranger,0,1,0.302,2,0.5
5,control_stranger,38,control,stranger,0,1,1.199,2,0.5
5,control_stranger,39,control,stranger,0,1,1.269,2,0.5
5,control_stranger,39,control,stranger,0,1,0.97,2,0.5
5,control_stranger,40,control,stranger,0,1,0.883,2,0.5
5,control_stranger,40,control,stranger,0,0,2.634,2,0.5
5,control_stranger,41,control,stranger,1,0,1.069,2,0.5
5,control_stranger,41,control,stranger,1,1,1.239,2,0.5
5,control_stranger,42,control,stranger,0,1,1.245,2,0.5
5,control_stranger,42,control,stranger,1,0,0.658,2,0.5
5,control_stranger,43,control,stranger,0,1,0.801,2,0.5
5,control_stranger,43,control,stranger,1,1,0.785,2,0.5
5,control_stranger,44,control,stranger,0,1,0.389,2,0.5
5,control_stranger,44,control,stranger,0,1,1.302,2,0.5
5,control_stranger,45,control,stranger,0,0,1.192,2,0.5
5,control_stranger,45,control,stranger,0,1,0.753,2,0.5
5,control_stranger,46,control,stranger,1,0,0.746,2,0.5
5,control_stranger,46,control,stranger,0,1,1.639,2,0.5
5,control_stranger,47,control,stranger,1,0,1.156,2,0.5
5,control_stranger,47,control,stranger,0,1,1.237,2,0.5
5,control_stranger,48,control,stranger,1,0,0.641,2,0.5
5,control_stranger,48,control,stranger,0,1,1.124,2,0.5
5,control_stranger,49,control,stranger,1,0,0.681,2,0.5
5,control_stranger,49,control,stranger,0,1,0.935,2,0.5
5,control_stranger,50,control,stranger,0,1,0.685,2,0.5
5,control_stranger,50,control,stranger,1,0,0.966,2,0.5
5,surprise_stranger,1,surprise,stranger,0,0,2.386,4,0.5
5,surprise_stranger,2,surprise,stranger,0,0,0.746,4,0.5
5,surprise_stranger,3,surprise,stranger,0,0,1.795,4,0.5
5,surprise_stranger,4,surprise,stranger,1,0,0.44,4,0.5
5,surprise_stranger,5,surprise,stranger,0,0,1.095,4,0.5
5,surprise_stranger,6,surprise,stranger,0,0,0.671,4,0.5
5,surprise_stranger,7,surprise,stranger,1,1,0.376,4,0.5
5,surprise_stranger,8,surprise,stranger,1,1,0.517,4,0.5
5,surprise_stranger,9,surprise,stranger,1,0,0.64,4,0.5
5,surprise_stranger,10,surprise,stranger,1,1,0.95,4,0.5
5,surprise_stranger,11,surprise,stranger,1,1,1.146,4,0.5
5,surprise_stranger,12,surprise,stranger,1,1,0.483,4,0.5
5,surprise_stranger,13,surprise,stranger,1,0,0.658,4,0.5
5,surprise_stranger,14,surprise,stranger,0,0,0.58,4,0.5
5,surprise_stranger,15,surprise,stranger,0,1,1.281,4,0.5
5,surprise_stranger,16,surprise,stranger,0,0,2.335,4,0.5
5,surprise_stranger,17,surprise,stranger,0,0,1.384,4,0.5
5,surprise_stranger,18,surprise,stranger,1,1,0.901,4,0.5
5,surprise_stranger,19,surprise,stranger,1,0,1.137,4,0.5
5,surprise_stranger,20,surprise,stranger,1,1,0.935,4,0.5
5,surprise_stranger,21,surprise,stranger,1,1,0.646,4,0.5
5,surprise_stranger,22,surprise,stranger,1,1,0.932,4,0.5
5,surprise_stranger,23,surprise,stranger,0,0,1.555,4,0.5
5,surprise_stranger,24,surprise,stranger,1,1,0.594,4,0.5
5,surprise_stranger,25,surprise,stranger,1,1,0.828,4,0.5
5,surprise_stranger,26,surprise,stranger,1,0,0.945,4,0.5
5,surprise_stranger,27,surprise,stranger,1,0,0.548,4,0.5
5,surprise_stranger,28,surprise,stranger,0,0,0.976,4,0.5
5,surprise_stranger,29,surprise,stranger,1,1,1.175,4,0.5
5,surprise_stranger,30,surprise,stranger,0,1,1.773,4,0.5
5,surprise_stranger,31,surprise,stranger,1,1,1.267,4,0.5
5,surprise_stranger,32,surprise,stranger,1,0,0.695,4,0.5
5,surprise_stranger,33,surprise,stranger,1,0,0.671,4,0.5
5,surprise_stranger,34,surprise,stranger,1,0,1.246,4,0.5
5,surprise_stranger,35,surprise,stranger,1,0,1.928,4,0.5
5,surprise_stranger,36,surprise,stranger,1,0,1.76,4,0.5
5,surprise_stranger,37,surprise,stranger,1,0,1.069,4,0.5
5,surprise_stranger,38,surprise,stranger,0,1,0.781,4,0.5
5,surprise_stranger,39,surprise,stranger,1,0,1.76,4,0.5
5,surprise_stranger,40,surprise,stranger,0,1,1.124,4,0.5
5,surprise_stranger,41,surprise,stranger,1,0,1.227,4,0.5
5,surprise_stranger,42,surprise,stranger,1,1,0.859,4,0.5
5,surprise_stranger,43,surprise,stranger,1,0,0.897,4,0.5
5,surprise_stranger,44,surprise,stranger,1,1,0.585,4,0.5
5,surprise_stranger,45,surprise,stranger,1,0,0.905,4,0.5
5,surprise_stranger,46,surprise,stranger,1,0,0.527,4,0.5
5,surprise_stranger,47,surprise,stranger,1,0,1.294,4,0.5
5,surprise_stranger,48,surprise,stranger,1,0,1.593,4,0.5
5,surprise_stranger,49,surprise,stranger,0,1,0.682,4,0.5
5,surprise_stranger,50,surprise,stranger,0,1,0.983,4,0.5
6,control_stranger,1,control,stranger,0,0,4.627,2,0.5
6,control_stranger,2,control,stranger,0,0,1.112,2,0.5
6,control_stranger,3,control,stranger,1,1,0.863,2,0.5
6,control_stranger,4,control,stranger,1,1,0.94,2,0.5
6,control_stranger,5,control,stranger,1,1,0.419,2,0.5
6,control_stranger,6,control,stranger,1,0,0.893,2,0.5
6,control_stranger,7,control,stranger,0,0,0.679,2,0.5
6,control_stranger,8,control,stranger,1,1,0.572,2,0.5
6,control_stranger,9,control,stranger,1,1,0.954,2,0.5
6,control_stranger,10,control,stranger,0,0,0.809,2,0.5
6,control_stranger,11,control,stranger,1,1,0.486,2,0.5
6,control_stranger,12,control,stranger,1,1,1.052,2,0.5
6,control_stranger,13,control,stranger,0,1,0.408,2,0.5
6,control_stranger,14,control,stranger,0,1,2.278,2,0.5
6,control_stranger,15,control,stranger,0,0,0.703,2,0.5
6,control_stranger,16,control,stranger,1,0,0.416,2,0.5
6,control_stranger,17,control,stranger,0,0,2.295,2,0.5
6,control_stranger,18,control,stranger,1,1,0.622,2,0.5
6,control_stranger,19,control,stranger,1,1,0.385,2,0.5
6,control_stranger,20,control,stranger,0,0,2.68,2,0.5
6,control_stranger,21,control,stranger,0,0,1.128,2,0.5
6,control_stranger,22,control,stranger,1,1,0.415,2,0.5
6,control_stranger,23,control,stranger,1,1,0.489,2,0.5
6,control_stranger,24,control,stranger,1,1,1.215,2,0.5
6,control_stranger,25,control,stranger,1,0,0.46,2,0.5
6,control_stranger,26,control,stranger,0,0,0.864,2,0.5
6,control_stranger,27,control,stranger,0,1,0.242,2,0.5
6,control_stranger,28,control,stranger,0,1,1.234,2,0.5
6,control_stranger,29,control,stranger,1,0,1.008,2,0.5
6,control_stranger,30,control,stranger,0,1,2.207,2,0.5
6,control_stranger,31,control,stranger,0,1,0.755,2,0.5
6,control_stranger,32,control,stranger,0,0,0.987,2,0.5
6,control_stranger,33,control,stranger,0,1,0.921,2,0.5
6,control_stranger,34,control,stranger,0,1,0.48,2,0.5
6,control_stranger,35,control,stranger,1,0,0.679,2,0.5
6,control_stranger,36,control,stranger,1,0,2.301,2,0.5
6,control_stranger,37,control,stranger,0,1,0.964,2,0.5
6,control_stranger,38,control,stranger,0,1,0.623,2,0.5
6,control_stranger,39,control,stranger,1,0,0.53,2,0.5
6,control_stranger,40,control,stranger,0,1,1.189,2,0.5
6,control_stranger,41,control,stranger,1,0,1.004,2,0.5
6,control_stranger,42,control,stranger,1,0,1.3,2,0.5
6,control_stranger,43,control,stranger,1,1,1.076,2,0.5
6,control_stranger,44,control,stranger,1,1,0.726,2,0.5
6,control_stranger,45,control,stranger,1,0,0.492,2,0.5
6,control_stranger,46,control,stranger,1,0,0.591,2,0.5
6,control_stranger,47,control,stranger,0,1,1.016,2,0.5
6,control_stranger,48,control,stranger,0,1,0.432,2,0.5
6,control_stranger,49,control,stranger,0,1,0.713,2,0.5
6,control_stranger,50,control,stranger,0,0,0.887,2,0.5
6,surprise_stranger,1,surprise,stranger,0,0,1.043,4,0.5
6,surprise_stranger,2,surprise,stranger,0,0,0.681,4,0.5
6,surprise_stranger,3,surprise,stranger,1,0,0.75,4,0.5
6,surprise_stranger,4,surprise,stranger,0,0,0.761,4,0.5
6,surprise_stranger,5,surprise,stranger,1,1,1.24,4,0.5
6,surprise_stranger,6,surprise,stranger,1,1,0.879,4,0.5
6,surprise_stranger,7,surprise,stranger,1,1,0.644,4,0.5
6,surprise_stranger,8,surprise,stranger,1,1,2.756,4,0.5
6,surprise_stranger,9,surprise,stranger,0,0,0.684,4,0.5
6,surprise_stranger,10,surprise,stranger,0,0,1.387,4,0.5
6,surprise_stranger,11,surprise,stranger,0,0,0.454,4,0.5
6,surprise_stranger,12,surprise,stranger,0,1,0.532,4,0.5
6,surprise_stranger,13,surprise,stranger,0,0,1.107,4,0.5
6,surprise_stranger,14,surprise,stranger,1,0,1.145,4,0.5
6,surprise_stranger,15,surprise,stranger,1,1,1.002,4,0.5
6,surprise_stranger,16,surprise,stranger,1,1,0.68,4,0.5
6,surprise_stranger,17,surprise,stranger,1,0,0.742,4,0.5
6,surprise_stranger,18,surprise,stranger,0,0,0.798,4,0.5
6,surprise_stranger,19,surprise,stranger,0,0,0.826,4,0.5
6,surprise_stranger,20,surprise,stranger,0,0,1.028,4,0.5
6,surprise_stranger,21,surprise,stranger,0,0,0.505,4,0.5
6,surprise_stranger,22,surprise,stranger,0,0,0.592,4,0.5
6,surprise_stranger,23,surprise,stranger,0,0,1.042,4,0.5
6,surprise_stranger,24,surprise,stranger,1,0,1.359,4,0.5
6,surprise_stranger,25,surprise,stranger,0,0,3.02,4,0.5
6,surprise_stranger,26,surprise,stranger,1,0,0.758,4,0.5
6,surprise_stranger,27,surprise,stranger,1,0,3.796,4,0.5
6,surprise_stranger,28,surprise,stranger,1,1,1.012,4,0.5
6,surprise_stranger,29,surprise,stranger,1,0,0.587,4,0.5
6,surprise_stranger,30,surprise,stranger,0,0,1.826,4,0.5
6,surprise_stranger,31,surprise,stranger,1,1,0.428,4,0.5
6,surprise_stranger,32,surprise,stranger,1,0,0.391,4,0.5
6,surprise_stranger,33,surprise,stranger,0,1,0.933,4,0.5
6,surprise_stranger,34,surprise,stranger,0,1,0.726,4,0.5
6,surprise_stranger,35,surprise,stranger,0,1,0.84,4,0.5
6,surprise_stranger,36,surprise,stranger,0,1,0.733,4,0.5
6,surprise_stranger,37,surprise,stranger,1,0,1.815,4,0.5
6,surprise_stranger,38,surprise,stranger,0,1,0.896,4,0.5
6,surprise_stranger,39,surprise,stranger,0,0,0.524,4,0.5
6,surprise_stranger,40,surprise,stranger,0,0,0.853,4,0.5
6,surprise_stranger,41,surprise,stranger,0,1,0.769,4,0.5
6,surprise_stranger,42,surprise,stranger,0,1,0.849,4,0.5
6,surprise_stranger,43,surprise,stranger,0,1,3.502,4,0.5
6,surprise_stranger,44,surprise,stranger,1,0,1.163,4,0.5
6,surprise_stranger,45,surprise,stranger,0,1,4.901,4,0.5
6,surprise_stranger,46,surprise,stranger,1,0,0.923,4,0.5
6,surprise_stranger,47,surprise,stranger,0,1,0.996,4,0.5
6,surprise_stranger,48,surprise,stranger,1,0,0.619,4,0.5
6,surprise_stranger,49,surprise,stranger,0,1,0.751,4,0.5
6,surprise_stranger,50,surprise,stranger,0,1,0.454,4,0.5
7,control_stranger,1,control,stranger,1,1,7.036,2,0.5
7,control_stranger,2,control,stranger,1,1,1.288,2,0.5
7,control_stranger,3,control,stranger,1,0,1.246,2,0.5
7,control_stranger,4,control,stranger,0,0,1.528,2,0.5
7,control_stranger,5,control,stranger,0,0,2.486,2,0.5
7,control_stranger,6,control,stranger,1,1,1.53,2,0.5
7,control_stranger,7,control,stranger,1,0,0.889,2,0.5
7,control_stranger,8,control,stranger,0,0,1.666,2,0.5
7,control_stranger,9,control,stranger,1,1,1.268,2,0.5
7,control_stranger,10,control,stranger,0,1,3.827,2,0.5
7,control_stranger,11,control,stranger,1,1,0.989,2,0.5
7,control_stranger,12,control,stranger,1,1,1.205,2,0.5
7,control_stranger,13,control,stranger,0,0,0.877,2,0.5
7,control_stranger,14,control,stranger,0,0,1.844,2,0.5
7,control_stranger,15,control,stranger,0,0,2.031,2,0.5
7,control_stranger,16,control,stranger,1,1,3.038,2,0.5
7,control_stranger,17,control,stranger,0,1,5.467,2,0.5
7,control_stranger,18,control,stranger,1,1,1.255,2,0.5
7,control_stranger,19,control,stranger,1,0,1.566,2,0.5
7,control_stranger,20,control,stranger,1,1,0.914,2,0.5
7,control_stranger,21,control,stranger,1,1,3.837,2,0.5
7,control_stranger,22,control,stranger,0,0,1.533,2,0.5
7,control_stranger,23,control,stranger,1,1,1.291,2,0.5
7,control_stranger,24,control,stranger,0,0,1.065,2,0.5
7,control_stranger,25,control,stranger,1,1,0.77,2,0.5
7,control_stranger,26,control,stranger,1,0,0.872,2,0.5
7,control_stranger,27,control,stranger,1,0,1.413,2,0.5
7,control_stranger,28,control,stranger,1,0,1.746,2,0.5
7,control_stranger,29,control,stranger,0,0,1.557,2,0.5
7,control_stranger,30,control,stranger,0,1,1.025,2,0.5
7,control_stranger,31,control,stranger,1,0,2.277,2,0.5
7,control_stranger,32,control,stranger,0,1,1.572,2,0.5
7,control_stranger,33,control,stranger,1,1,5.07,2,0.5
7,control_stranger,34,control,stranger,1,0,1.471,2,0.5
7,control_stranger,35,control,stranger,0,1,2.886,2,0.5
7,control_stranger,36,control,stranger,0,1,6.624,2,0.5
7,control_stranger,37,control,stranger,1,0,1.282,2,0.5
7,control_stranger,38,control,stranger,1,0,0.928,2,0.5
7,control_stranger,39,control,stranger,0,1,3.079,2,0.5
7,control_stranger,40,control,stranger,1,1,1.238,2,0.5
7,control_stranger,41,control,stranger,1,0,0.732,2,0.5
7,control_stranger,42,control,stranger,1,0,0.935,2,0.5
7,control_stranger,43,control,stranger,0,0,1.087,2,0.5
7,control_stranger,44,control,stranger,1,0,0.768,2,0.5
7,control_stranger,45,control,stranger,0,1,1.127,2,0.5
7,control_stranger,46,control,stranger,0,1,0.659,2,0.5
7,control_stranger,47,control,stranger,0,0,1.303,2,0.5
7,control_stranger,48,control,stranger,1,0,0.949,2,0.5
7,control_stranger,49,control,stranger,0,1,0.948,2,0.5
7,control_stranger,50,control,stranger,0,1,3.088,2,0.5
7,surprise_stranger,1,surprise,stranger,0,0,1.547,4,0.5
7,surprise_stranger,2,surprise,stranger,1,1,0.966,4,0.5
7,surprise_stranger,3,surprise,stranger,1,0,0.928,4,0.5
7,surprise_stranger,4,surprise,stranger,0,0,1.492,4,0.5
7,surprise_stranger,5,surprise,stranger,0,0,2.54,4,0.5
7,surprise_stranger,6,surprise,stranger,1,0,3.22,4,0.5
7,surprise_stranger,7,surprise,stranger,0,0,0.865,4,0.5
7,surprise_stranger,8,surprise,stranger,1,1,0.977,4,0.5
7,surprise_stranger,9,surprise,stranger,0,0,3.11,4,0.5
7,surprise_stranger,10,surprise,stranger,0,0,0.723,4,0.5
7,surprise_stranger,11,surprise,stranger,0,0,0.666,4,0.5
7,surprise_stranger,12,surprise,stranger,1,1,0.392,4,0.5
7,surprise_stranger,13,surprise,stranger,1,0,2.278,4,0.5
7,surprise_stranger,14,surprise,stranger,0,0,1.075,4,0.5
7,surprise_stranger,15,surprise,stranger,1,1,0.764,4,0.5
7,surprise_stranger,16,surprise,stranger,1,1,0.779,4,0.5
7,surprise_stranger,17,surprise,stranger,1,1,0.537,4,0.5
7,surprise_stranger,18,surprise,stranger,1,1,0.693,4,0.5
7,surprise_stranger,19,surprise,stranger,1,1,5.049,4,0.5
7,surprise_stranger,20,surprise,stranger,0,0,2.393,4,0.5
7,surprise_stranger,21,surprise,stranger,1,1,2.608,4,0.5
7,surprise_stranger,22,surprise,stranger,1,0,0.454,4,0.5
7,surprise_stranger,23,surprise,stranger,1,1,1.67,4,0.5
7,surprise_stranger,24,surprise,stranger,1,1,0.799,4,0.5
7,surprise_stranger,25,surprise,stranger,0,1,1.007,4,0.5
7,surprise_stranger,26,surprise,stranger,0,1,0.524,4,0.5
7,surprise_stranger,27,surprise,stranger,0,1,0.535,4,0.5
7,surprise_stranger,28,surprise,stranger,0,0,0.934,4,0.5
7,surprise_stranger,29,surprise,stranger,0,1,0.607,4,0.5
7,surprise_stranger,30,surprise,stranger,1,1,1.819,4,0.5
7,surprise_stranger,31,surprise,stranger,1,0,1.0145,4,0.5
7,surprise_stranger,32,surprise,stranger,0,1,2.137,4,0.5
7,surprise_stranger,33,surprise,stranger,0,1,1.493,4,0.5
7,surprise_stranger,34,surprise,stranger,0,1,0.675,4,0.5
7,surprise_stranger,35,surprise,stranger,0,1,0.701,4,0.5
7,surprise_stranger,36,surprise,stranger,0,0,0.884,4,0.5
7,surprise_stranger,37,surprise,stranger,0,1,0.972,4,0.5
7,surprise_stranger,38,surprise,stranger,0,1,0.528,4,0.5
7,surprise_stranger,39,surprise,stranger,0,1,0.717,4,0.5
7,surprise_stranger,40,surprise,stranger,0,1,1.418,4,0.5
7,surprise_stranger,41,surprise,stranger,0,1,2.446,4,0.5
7,surprise_stranger,42,surprise,stranger,1,0,0.661,4,0.5
7,surprise_stranger,43,surprise,stranger,0,1,0.811,4,0.5
7,surprise_stranger,44,surprise,stranger,1,0,0.469,4,0.5
7,surprise_stranger,45,surprise,stranger,0,1,0.787,4,0.5
7,surprise_stranger,46,surprise,stranger,0,0,0.453,4,0.5
7,surprise_stranger,47,surprise,stranger,1,0,1.01,4,0.5
7,surprise_stranger,48,surprise,stranger,0,1,0.428,4,0.5
7,surprise_stranger,49,surprise,stranger,1,0,0.368,4,0.5
7,surprise_stranger,50,surprise,stranger,1,1,0.67,4,0.5
8,control_self,1,control,self,1,1,2.481,1,0.5
8,control_self,2,control,self,1,1,1.492,1,0.5
8,control_self,3,control,self,1,0,1.013,1,0.5
8,control_self,4,control,self,0,1,0.846,1,0.5
8,control_self,5,control,self,0,0,1.284,1,0.5
8,control_self,6,control,self,0,0,1.704,1,0.5
8,control_self,7,control,self,0,0,1.156,1,0.5
8,control_self,8,control,self,1,1,1.011,1,0.5
8,control_self,9,control,self,1,1,0.56,1,0.5
8,control_self,10,control,self,1,1,3.374,1,0.5
8,control_self,11,control,self,1,1,0.961,1,0.5
8,control_self,12,control,self,1,1,0.903,1,0.5
8,control_self,13,control,self,1,1,0.973,1,0.5
8,control_self,14,control,self,1,1,1.332,1,0.5
8,control_self,15,control,self,1,1,0.589,1,0.5
8,control_self,16,control,self,1,1,1.025,1,0.5
8,control_self,17,control,self,1,1,1.43,1,0.5
8,control_self,18,control,self,1,1,1.94,1,0.5
8,control_self,19,control,self,1,0,0.754,1,0.5
8,control_self,20,control,self,0,1,1.7,1,0.5
8,control_self,21,control,self,0,0,1.221,1,0.5
8,control_self,22,control,self,1,1,1.189,1,0.5
8,control_self,23,control,self,1,1,1.531,1,0.5
8,control_self,24,control,self,1,1,1.13,1,0.5
8,control_self,25,control,self,1,0,1.229,1,0.5
8,control_self,26,control,self,0,1,1.101,1,0.5
8,control_self,27,control,self,0,1,0.686,1,0.5
8,control_self,28,control,self,0,1,1.081,1,0.5
8,control_self,29,control,self,0,1,0.977,1,0.5
8,control_self,30,control,self,0,0,1.401,1,0.5
8,control_self,31,control,self,1,0,0.696,1,0.5
8,control_self,32,control,self,0,1,1.579,1,0.5
8,control_self,33,control,self,0,1,1.006,1,0.5
8,control_self,34,control,self,1,0,0.973,1,0.5
8,control_self,35,control,self,0,1,0.882,1,0.5
8,control_self,36,control,self,0,0,0.594,1,0.5
8,control_self,37,control,self,1,0,1.26,1,0.5
8,control_self,38,control,self,0,1,0.864,1,0.5
8,control_self,39,control,self,0,1,2.375,1,0.5
8,control_self,40,control,self,1,0,2.035,1,0.5
8,control_self,41,control,self,1,0,1.04,1,0.5
8,control_self,42,control,self,1,1,1.089,1,0.5
8,control_self,43,control,self,1,0,0.444,1,0.5
8,control_self,44,control,self,0,1,0.948,1,0.5
8,control_self,45,control,self,0,1,0.969,1,0.5
8,control_self,46,control,self,0,0,1.732,1,0.5
8,control_self,47,control,self,1,0,0.795,1,0.5
8,control_self,48,control,self,1,0,0.583,1,0.5
8,control_self,49,control,self,1,0,0.958,1,0.5
8,control_self,50,control,self,0,0,1.222,1,0.5
8,control_stranger,1,control,stranger,0,0,0.925,2,0.5
8,control_stranger,2,control,stranger,1,1,1.072,2,0.5
8,control_stranger,3,control,stranger,1,0,0.438,2,0.5
8,control_stranger,4,control,stranger,0,1,1.035,2,0.5
8,control_stranger,5,control,stranger,0,1,0.678,2,0.5
8,control_stranger,6,control,stranger,0,1,0.773,2,0.5
8,control_stranger,7,control,stranger,0,0,0.447,2,0.5
8,control_stranger,8,control,stranger,0,0,0.522,2,0.5
8,control_stranger,9,control,stranger,1,1,0.68,2,0.5
8,control_stranger,10,control,stranger,1,1,2.57,2,0.5
8,control_stranger,11,control,stranger,1,1,2.205,2,0.5
8,control_stranger,12,control,stranger,1,1,0.928,2,0.5
8,control_stranger,13,control,stranger,0,0,1.512,2,0.5
8,control_stranger,14,control,stranger,1,1,1.945,2,0.5
8,control_stranger,15,control,stranger,1,0,3.257,2,0.5
8,control_stranger,16,control,stranger,1,1,2.622,2,0.5
8,control_stranger,17,control,stranger,1,1,1.015,2,0.5
8,control_stranger,18,control,stranger,1,1,0.797,2,0.5
8,control_stranger,19,control,stranger,1,1,0.663,2,0.5
8,control_stranger,20,control,stranger,1,1,1.375,2,0.5
8,control_stranger,21,control,stranger,1,1,0.528,2,0.5
8,control_stranger,22,control,stranger,1,1,0.497,2,0.5
8,control_stranger,23,control,stranger,1,1,0.816,2,0.5
8,control_stranger,24,control,stranger,1,1,0.437,2,0.5
8,control_stranger,25,control,stranger,1,1,0.562,2,0.5
8,control_stranger,26,control,stranger,1,0,1.214,2,0.5
8,control_stranger,27,control,stranger,0,1,0.595,2,0.5
8,control_stranger,28,control,stranger,0,0,0.771,2,0.5
8,control_stranger,29,control,stranger,0,1,0.837,2,0.5
8,control_stranger,30,control,stranger,0,1,3.485,2,0.5
8,control_stranger,31,control,stranger,0,1,1.161,2,0.5
8,control_stranger,32,control,stranger,0,1,1.933,2,0.5
8,control_stranger,33,control,stranger,0,1,0.447,2,0.5
8,control_stranger,34,control,stranger,1,1,0.97,2,0.5
8,control_stranger,35,control,stranger,1,1,0.952,2,0.5
8,control_stranger,36,control,stranger,0,1,0.35,2,0.5
8,control_stranger,37,control,stranger,0,1,0.491,2,0.5
8,control_stranger,38,control,stranger,0,1,0.481,2,0.5
8,control_stranger,39,control,stranger,1,0,0.455,2,0.5
8,control_stranger,40,control,stranger,0,1,0.336,2,0.5
8,control_stranger,41,control,stranger,1,0,0.528,2,0.5
8,control_stranger,42,control,stranger,0,0,1.036,2,0.5
8,control_stranger,43,control,stranger,1,1,0.674,2,0.5
8,control_stranger,44,control,stranger,1,0,0.414,2,0.5
8,control_stranger,45,control,stranger,0,1,1.341,2,0.5
8,control_stranger,46,control,stranger,0,1,1.227,2,0.5
8,control_stranger,47,control,stranger,0,1,1.158,2,0.5
8,control_stranger,48,control,stranger,0,1,1.174,2,0.5
8,control_stranger,49,control,stranger,1,0,1.22,2,0.5
8,control_stranger,50,control,stranger,1,0,1.699,2,0.5
8,surprise_self,1,surprise,self,0,0,1.428,3,0.5
8,surprise_self,2,surprise,self,1,0,1.314,3,0.5
8,surprise_self,3,surprise,self,0,0,1.077,3,0.5
8,surprise_self,4,surprise,self,0,0,1.556,3,0.5
8,surprise_self,5,surprise,self,1,1,0.963,3,0.5
8,surprise_self,6,surprise,self,0,0,1.312,3,0.5
8,surprise_self,7,surprise,self,1,1,1.3,3,0.5
8,surprise_self,8,surprise,self,0,1,1.436,3,0.5
8,surprise_self,9,surprise,self,0,1,1.397,3,0.5
8,surprise_self,10,surprise,self,0,0,1.695,3,0.5
8,surprise_self,11,surprise,self,0,0,2.082,3,0.5
8,surprise_self,12,surprise,self,0,0,1.468,3,0.5
8,surprise_self,13,surprise,self,1,1,0.941,3,0.5
8,surprise_self,14,surprise,self,0,0,0.839,3,0.5
8,surprise_self,15,surprise,self,1,1,1.109,3,0.5
8,surprise_self,16,surprise,self,1,1,0.539,3,0.5
8,surprise_self,17,surprise,self,1,1,0.777,3,0.5
8,surprise_self,18,surprise,self,1,0,0.898,3,0.5
8,surprise_self,19,surprise,self,0,0,1.097,3,0.5
8,surprise_self,20,surprise,self,0,0,3.608,3,0.5
8,surprise_self,21,surprise,self,1,1,1.387,3,0.5
8,surprise_self,22,surprise,self,1,1,0.982,3,0.5
8,surprise_self,23,surprise,self,1,1,1.615,3,0.5
8,surprise_self,24,surprise,self,1,0,0.525,3,0.5
8,surprise_self,25,surprise,self,0,0,1.328,3,0.5
8,surprise_self,26,surprise,self,0,1,0.787,3,0.5
8,surprise_self,27,surprise,self,0,1,0.535,3,0.5
8,surprise_self,28,surprise,self,0,0,0.788,3,0.5
8,surprise_self,29,surprise,self,0,1,0.664,3,0.5
8,surprise_self,30,surprise,self,1,1,2.013,3,0.5
8,surprise_self,31,surprise,self,1,0,0.972,3,0.5
8,surprise_self,32,surprise,self,0,0,1.609,3,0.5
8,surprise_self,33,surprise,self,1,0,0.784,3,0.5
8,surprise_self,34,surprise,self,1,0,0.887,3,0.5
8,surprise_self,35,surprise,self,0,1,0.451,3,0.5
8,surprise_self,36,surprise,self,0,1,1.731,3,0.5
8,surprise_self,37,surprise,self,0,1,1.379,3,0.5
8,surprise_self,38,surprise,self,0,0,1.492,3,0.5
8,surprise_self,39,surprise,self,0,1,0.896,3,0.5
8,surprise_self,40,surprise,self,1,1,1.615,3,0.5
8,surprise_self,41,surprise,self,0,1,1.873,3,0.5
8,surprise_self,42,surprise,self,0,0,1.974,3,0.5
8,surprise_self,43,surprise,self,1,0,1.442,3,0.5
8,surprise_self,44,surprise,self,1,0,0.595,3,0.5
8,surprise_self,45,surprise,self,0,1,0.929,3,0.5
8,surprise_self,46,surprise,self,0,1,2.115,3,0.5
8,surprise_self,47,surprise,self,0,1,0.86,3,0.5
8,surprise_self,48,surprise,self,0,1,1.496,3,0.5
8,surprise_self,49,surprise,self,0,1,1.117,3,0.5
8,surprise_self,50,surprise,self,0,1,1.736,3,0.5
8,surprise_stranger,1,surprise,stranger,0,0,3.389,4,0.5
8,surprise_stranger,2,surprise,stranger,1,1,1.373,4,0.5
8,surprise_stranger,3,surprise,stranger,0,1,0.722,4,0.5
8,surprise_stranger,4,surprise,stranger,1,0,0.463,4,0.5
8,surprise_stranger,5,surprise,stranger,1,1,0.591,4,0.5
8,surprise_stranger,6,surprise,stranger,1,0,0.549,4,0.5
8,surprise_stranger,7,surprise,stranger,0,0,1.084,4,0.5
8,surprise_stranger,8,surprise,stranger,1,1,0.443,4,0.5
8,surprise_stranger,9,surprise,stranger,0,0,1.034,4,0.5
8,surprise_stranger,10,surprise,stranger,0,0,1.738,4,0.5
8,surprise_stranger,11,surprise,stranger,0,0,0.86,4,0.5
8,surprise_stranger,12,surprise,stranger,0,0,0.958,4,0.5
8,surprise_stranger,13,surprise,stranger,1,1,1.138,4,0.5
8,surprise_stranger,14,surprise,stranger,1,1,0.663,4,0.5
8,surprise_stranger,15,surprise,stranger,1,1,2.268,4,0.5
8,surprise_stranger,16,surprise,stranger,0,0,2.252,4,0.5
8,surprise_stranger,17,surprise,stranger,1,0,2.118,4,0.5
8,surprise_stranger,18,surprise,stranger,0,0,1.077,4,0.5
8,surprise_stranger,19,surprise,stranger,0,0,0.784,4,0.5
8,surprise_stranger,20,surprise,stranger,1,1,0.662,4,0.5
8,surprise_stranger,21,surprise,stranger,1,1,0.765,4,0.5
8,surprise_stranger,22,surprise,stranger,1,1,0.901,4,0.5
8,surprise_stranger,23,surprise,stranger,1,1,0.403,4,0.5
8,surprise_stranger,24,surprise,stranger,1,0,0.442,4,0.5
8,surprise_stranger,25,surprise,stranger,1,1,0.798,4,0.5
8,surprise_stranger,26,surprise,stranger,1,0,0.731,4,0.5
8,surprise_stranger,27,surprise,stranger,0,0,1.329,4,0.5
8,surprise_stranger,28,surprise,stranger,1,0,0.603,4,0.5
8,surprise_stranger,29,surprise,stranger,1,0,1.579,4,0.5
8,surprise_stranger,30,surprise,stranger,0,0,1.644,4,0.5
8,surprise_stranger,31,surprise,stranger,0,1,0.915,4,0.5
8,surprise_stranger,32,surprise,stranger,0,1,1.023,4,0.5
8,surprise_stranger,33,surprise,stranger,0,0,0.654,4,0.5
8,surprise_stranger,34,surprise,stranger,1,0,0.841,4,0.5
8,surprise_stranger,35,surprise,stranger,0,1,0.688,4,0.5
8,surprise_stranger,36,surprise,stranger,0,1,0.778,4,0.5
8,surprise_stranger,37,surprise,stranger,0,1,1.387,4,0.5
8,surprise_stranger,38,surprise,stranger,0,1,1.142,4,0.5
8,surprise_stranger,39,surprise,stranger,0,1,0.542,4,0.5
8,surprise_stranger,40,surprise,stranger,0,1,0.841,4,0.5
8,surprise_stranger,41,surprise,stranger,1,0,0.706,4,0.5
8,surprise_stranger,42,surprise,stranger,0,1,0.63,4,0.5
8,surprise_stranger,43,surprise,stranger,0,0,0.607,4,0.5
8,surprise_stranger,44,surprise,stranger,1,0,0.988,4,0.5
8,surprise_stranger,45,surprise,stranger,1,1,0.819,4,0.5
8,surprise_stranger,46,surprise,stranger,1,0,1.357,4,0.5
8,surprise_stranger,47,surprise,stranger,0,1,1.384,4,0.5
8,surprise_stranger,48,surprise,stranger,0,1,1.031,4,0.5
8,surprise_stranger,49,surprise,stranger,0,1,0.923,4,0.5
8,surprise_stranger,50,surprise,stranger,0,1,0.397,4,0.5
9,control_stranger,1,control,stranger,0,0,1.658,2,0.5
9,control_stranger,2,control,stranger,0,0,2.179,2,0.5
9,control_stranger,3,control,stranger,1,0,0.923,2,0.5
9,control_stranger,4,control,stranger,0,0,0.586,2,0.5
9,control_stranger,5,control,stranger,0,0,0.513,2,0.5
9,control_stranger,6,control,stranger,1,1,0.611,2,0.5
9,control_stranger,7,control,stranger,0,0,0.994,2,0.5
9,control_stranger,8,control,stranger,1,1,0.769,2,0.5
9,control_stranger,9,control,stranger,1,0,1.386,2,0.5
9,control_stranger,10,control,stranger,0,0,3.652,2,0.5
9,control_stranger,11,control,stranger,0,0,0.904,2,0.5
9,control_stranger,12,control,stranger,0,0,1.578,2,0.5
9,control_stranger,13,control,stranger,0,0,1.17,2,0.5
9,control_stranger,14,control,stranger,1,1,1.018,2,0.5
9,control_stranger,15,control,stranger,0,0,2.185,2,0.5
9,control_stranger,16,control,stranger,0,0,5.461,2,0.5
9,control_stranger,17,control,stranger,1,0,0.956,2,0.5
9,control_stranger,18,control,stranger,1,0,1.015,2,0.5
9,control_stranger,19,control,stranger,1,1,0.975,2,0.5
9,control_stranger,20,control,stranger,0,0,0.84,2,0.5
9,control_stranger,21,control,stranger,0,1,1.493,2,0.5
9,control_stranger,22,control,stranger,0,0,0.543,2,0.5
9,control_stranger,23,control,stranger,0,0,1.077,2,0.5
9,control_stranger,24,control,stranger,1,1,0.654,2,0.5
9,control_stranger,25,control,stranger,1,1,2.749,2,0.5
9,control_stranger,26,control,stranger,1,0,1.0145,2,0.5
9,control_stranger,27,control,stranger,0,1,0.904,2,0.5
9,control_stranger,28,control,stranger,0,1,1.172,2,0.5
9,control_stranger,29,control,stranger,0,1,1.037,2,0.5
9,control_stranger,30,control,stranger,0,1,0.732,2,0.5
9,control_stranger,31,control,stranger,0,0,0.626,2,0.5
9,control_stranger,32,control,stranger,1,1,0.824,2,0.5
9,control_stranger,33,control,stranger,1,0,0.467,2,0.5
9,control_stranger,34,control,stranger,1,0,0.476,2,0.5
9,control_stranger,35,control,stranger,1,1,0.741,2,0.5
9,control_stranger,36,control,stranger,1,0,1.149,2,0.5
9,control_stranger,37,control,stranger,0,1,1.671,2,0.5
9,control_stranger,38,control,stranger,1,0,1.261,2,0.5
9,control_stranger,39,control,stranger,0,1,0.931,2,0.5
9,control_stranger,40,control,stranger,1,1,1.613,2,0.5
9,control_stranger,41,control,stranger,1,0,0.877,2,0.5
9,control_stranger,42,control,stranger,0,1,0.779,2,0.5
9,control_stranger,43,control,stranger,0,1,0.369,2,0.5
9,control_stranger,44,control,stranger,0,1,1.459,2,0.5
9,control_stranger,45,control,stranger,0,1,0.642,2,0.5
9,control_stranger,46,control,stranger,1,0,1.005,2,0.5
9,control_stranger,47,control,stranger,0,0,0.84,2,0.5
9,control_stranger,48,control,stranger,1,0,0.634,2,0.5
9,control_stranger,49,control,stranger,1,1,0.533,2,0.5
9,control_stranger,50,control,stranger,0,1,0.616,2,0.5
9,surprise_self,1,surprise,self,1,1,2.217,3,0.5
9,surprise_self,2,surprise,self,1,0,0.485,3,0.5
9,surprise_self,3,surprise,self,0,0,1.166,3,0.5
9,surprise_self,4,surprise,self,1,1,1.447,3,0.5
9,surprise_self,5,surprise,self,1,0,1.643,3,0.5
9,surprise_self,6,surprise,self,0,1,0.479,3,0.5
9,surprise_self,7,surprise,self,0,0,1.659,3,0.5
9,surprise_self,8,surprise,self,1,1,1.973,3,0.5
9,surprise_self,9,surprise,self,1,0,1.639,3,0.5
9,surprise_self,10,surprise,self,0,1,1.277,3,0.5
9,surprise_self,11,surprise,self,0,0,2.226,3,0.5
9,surprise_self,12,surprise,self,1,1,1.397,3,0.5
9,surprise_self,13,surprise,self,1,1,0.669,3,0.5
9,surprise_self,14,surprise,self,1,1,0.919,3,0.5
9,surprise_self,15,surprise,self,1,1,1.467,3,0.5
9,surprise_self,16,surprise,self,1,1,1.472,3,0.5
9,surprise_self,17,surprise,self,0,0,1.472,3,0.5
9,surprise_self,18,surprise,self,0,0,1.568,3,0.5
9,surprise_self,19,surprise,self,1,1,0.986,3,0.5
9,surprise_self,20,surprise,self,1,1,0.927,3,0.5
9,surprise_self,21,surprise,self,1,1,0.851,3,0.5
9,surprise_self,22,surprise,self,1,1,0.657,3,0.5
9,surprise_self,23,surprise,self,1,1,0.814,3,0.5
9,surprise_self,24,surprise,self,1,1,0.756,3,0.5
9,surprise_self,25,surprise,self,1,1,0.404,3,0.5
9,surprise_self,26,surprise,self,1,1,0.855,3,0.5
9,surprise_self,27,surprise,self,1,0,1.124,3,0.5
9,surprise_self,28,surprise,self,0,1,1.063,3,0.5
9,surprise_self,29,surprise,self,0,1,1.095,3,0.5
9,surprise_self,30,surprise,self,0,1,4.485,3,0.5
9,surprise_self,31,surprise,self,0,1,0.901,3,0.5
9,surprise_self,32,surprise,self,0,0,0.811,3,0.5
9,surprise_self,33,surprise,self,1,0,0.706,3,0.5
9,surprise_self,34,surprise,self,0,1,0.854,3,0.5
9,surprise_self,35,surprise,self,0,1,0.693,3,0.5
9,surprise_self,36,surprise,self,0,1,0.894,3,0.5
9,surprise_self,37,surprise,self,0,1,0.9,3,0.5
9,surprise_self,38,surprise,self,0,1,0.655,3,0.5
9,surprise_self,39,surprise,self,0,1,1.345,3,0.5
9,surprise_self,40,surprise,self,0,0,4.702,3,0.5
9,surprise_self,41,surprise,self,1,0,1.193,3,0.5
9,surprise_self,42,surprise,self,0,1,1.991,3,0.5
9,surprise_self,43,surprise,self,0,1,6.286,3,0.5
9,surprise_self,44,surprise,self,0,1,1.0145,3,0.5
9,surprise_self,45,surprise,self,0,1,0.608,3,0.5
9,surprise_self,46,surprise,self,0,0,0.962,3,0.5
9,surprise_self,47,surprise,self,1,0,0.929,3,0.5
9,surprise_self,48,surprise,self,0,1,2.296,3,0.5
9,surprise_self,49,surprise,self,0,0,1.03,3,0.5
9,surprise_self,50,surprise,self,0,1,0.961,3,0.5
9,surprise_stranger,1,surprise,stranger,0,0,0.769,4,0.5
9,surprise_stranger,2,surprise,stranger,1,1,1.297,4,0.5
9,surprise_stranger,3,surprise,stranger,1,1,0.494,4,0.5
9,surprise_stranger,4,surprise,stranger,1,0,4.056,4,0.5
9,surprise_stranger,5,surprise,stranger,1,1,1.688,4,0.5
9,surprise_stranger,6,surprise,stranger,1,1,1.011,4,0.5
9,surprise_stranger,7,surprise,stranger,1,1,1.019,4,0.5
9,surprise_stranger,8,surprise,stranger,1,0,1.166,4,0.5
9,surprise_stranger,9,surprise,stranger,1,1,1.191,4,0.5
9,surprise_stranger,10,surprise,stranger,1,1,3.166,4,0.5
9,surprise_stranger,11,surprise,stranger,1,0,0.626,4,0.5
9,surprise_stranger,12,surprise,stranger,0,0,0.502,4,0.5
9,surprise_stranger,13,surprise,stranger,1,1,1.258,4,0.5
9,surprise_stranger,14,surprise,stranger,1,1,1.413,4,0.5
9,surprise_stranger,15,surprise,stranger,1,1,1.177,4,0.5
9,surprise_stranger,16,surprise,stranger,1,1,3.072,4,0.5
9,surprise_stranger,17,surprise,stranger,1,0,1.01,4,0.5
9,surprise_stranger,18,surprise,stranger,1,1,1.25,4,0.5
9,surprise_stranger,19,surprise,stranger,1,1,0.745,4,0.5
9,surprise_stranger,20,surprise,stranger,1,1,4.018,4,0.5
9,surprise_stranger,21,surprise,stranger,1,1,1.045,4,0.5
9,surprise_stranger,22,surprise,stranger,1,1,1.023,4,0.5
9,surprise_stranger,23,surprise,stranger,1,1,1.186,4,0.5
9,surprise_stranger,24,surprise,stranger,1,0,0.943,4,0.5
9,surprise_stranger,25,surprise,stranger,1,1,1.116,4,0.5
9,surprise_stranger,26,surprise,stranger,1,0,0.89,4,0.5
9,surprise_stranger,27,surprise,stranger,1,0,1.08,4,0.5
9,surprise_stranger,28,surprise,stranger,0,1,1.213,4,0.5
9,surprise_stranger,29,surprise,stranger,0,1,4.73,4,0.5
9,surprise_stranger,30,surprise,stranger,0,1,1.548,4,0.5
9,surprise_stranger,31,surprise,stranger,1,1,0.937,4,0.5
9,surprise_stranger,32,surprise,stranger,1,0,0.872,4,0.5
9,surprise_stranger,33,surprise,stranger,1,0,1.578,4,0.5
9,surprise_stranger,34,surprise,stranger,0,1,1.076,4,0.5
9,surprise_stranger,35,surprise,stranger,0,1,0.66,4,0.5
9,surprise_stranger,36,surprise,stranger,0,1,0.967,4,0.5
9,surprise_stranger,37,surprise,stranger,1,0,3.434,4,0.5
9,surprise_stranger,38,surprise,stranger,0,1,1.147,4,0.5
9,surprise_stranger,39,surprise,stranger,0,1,0.703,4,0.5
9,surprise_stranger,40,surprise,stranger,0,0,1.65,4,0.5
9,surprise_stranger,41,surprise,stranger,1,0,1.004,4,0.5
9,surprise_stranger,42,surprise,stranger,0,1,0.594,4,0.5
9,surprise_stranger,43,surprise,stranger,0,0,2.476,4,0.5
9,surprise_stranger,44,surprise,stranger,0,0,0.959,4,0.5
9,surprise_stranger,45,surprise,stranger,1,0,0.878,4,0.5
9,surprise_stranger,46,surprise,stranger,1,0,0.816,4,0.5
9,surprise_stranger,47,surprise,stranger,0,1,0.956,4,0.5
9,surprise_stranger,48,surprise,stranger,0,1,1.139,4,0.5
9,surprise_stranger,49,surprise,stranger,0,0,1.193,4,0.5
9,surprise_stranger,50,surprise,stranger,0,1,0.874,4,0.5
10,control_self,1,control,self,1,0,2.791,1,0.5
10,control_self,2,control,self,0,0,2.206,1,0.5
10,control_self,3,control,self,1,1,1.586,1,0.5
10,control_self,4,control,self,1,1,2.157,1,0.5
10,control_self,5,control,self,1,1,1.727,1,0.5
10,control_self,6,control,self,1,1,5.091,1,0.5
10,control_self,7,control,self,1,1,3.187,1,0.5
10,control_self,8,control,self,1,1,1.871,1,0.5
10,control_self,9,control,self,1,0,1.717,1,0.5
10,control_self,10,control,self,1,1,3.843,1,0.5
10,control_self,11,control,self,1,1,3.105,1,0.5
10,control_self,12,control,self,1,1,1.843,1,0.5
10,control_self,13,control,self,0,0,3.125,1,0.5
10,control_self,14,control,self,1,1,1.267,1,0.5
10,control_self,15,control,self,0,0,2.068,1,0.5
10,control_self,16,control,self,0,1,4.327,1,0.5
10,control_self,17,control,self,1,1,6.553,1,0.5
10,control_self,18,control,self,1,1,1.572,1,0.5
10,control_self,19,control,self,1,0,2.098,1,0.5
10,control_self,20,control,self,1,1,2.061,1,0.5
10,control_self,21,control,self,1,1,2.262,1,0.5
10,control_self,22,control,self,1,1,2.54,1,0.5
10,control_self,23,control,self,1,0,1.78,1,0.5
10,control_self,24,control,self,0,0,1.432,1,0.5
10,control_self,25,control,self,1,1,1.414,1,0.5
10,control_self,26,control,self,1,1,5.008,1,0.5
10,control_self,27,control,self,1,0,0.87,1,0.5
10,control_self,28,control,self,1,0,2.872,1,0.5
10,control_self,29,control,self,1,0,2.01,1,0.5
10,control_self,30,control,self,1,0,2.807,1,0.5
10,control_self,31,control,self,1,0,1.171,1,0.5
10,control_self,32,control,self,1,0,1.531,1,0.5
10,control_self,33,control,self,0,1,1.273,1,0.5
10,control_self,34,control,self,0,1,1.811,1,0.5
10,control_self,35,control,self,0,0,1.904,1,0.5
10,control_self,36,control,self,0,1,1.646,1,0.5
10,control_self,37,control,self,0,1,1.469,1,0.5
10,control_self,38,control,self,0,1,1.975,1,0.5
10,control_self,39,control,self,0,0,1.738,1,0.5
10,control_self,40,control,self,0,1,3.045,1,0.5
10,control_self,41,control,self,0,1,1.195,1,0.5
10,control_self,42,control,self,1,0,2.053,1,0.5
10,control_self,43,control,self,1,1,1.457,1,0.5
10,control_self,44,control,self,1,0,0.923,1,0.5
10,control_self,45,control,self,1,0,0.96,1,0.5
10,control_self,46,control,self,0,1,1.292,1,0.5
10,control_self,47,control,self,0,1,1.103,1,0.5
10,control_self,48,control,self,0,1,2.125,1,0.5
10,control_self,49,control,self,1,1,2.194,1,0.5
10,control_self,50,control,self,1,0,1.477,1,0.5
10,control_stranger,1,control,stranger,0,0,0.868,2,0.5
10,control_stranger,2,control,stranger,0,0,0.694,2,0.5
10,control_stranger,3,control,stranger,1,1,2.741,2,0.5
10,control_stranger,4,control,stranger,0,0,1.152,2,0.5
10,control_stranger,5,control,stranger,0,0,0.901,2,0.5
10,control_stranger,6,control,stranger,0,0,0.644,2,0.5
10,control_stranger,7,control,stranger,0,0,0.378,2,0.5
10,control_stranger,8,control,stranger,0,0,0.966,2,0.5
10,control_stranger,9,control,stranger,0,0,3.311,2,0.5
10,control_stranger,10,control,stranger,1,1,1.017,2,0.5
10,control_stranger,11,control,stranger,1,0,0.691,2,0.5
10,control_stranger,12,control,stranger,0,0,0.848,2,0.5
10,control_stranger,13,control,stranger,1,1,0.911,2,0.5
10,control_stranger,14,control,stranger,1,1,1.072,2,0.5
10,control_stranger,15,control,stranger,1,0,0.687,2,0.5
10,control_stranger,16,control,stranger,1,1,0.611,2,0.5
10,control_stranger,17,control,stranger,1,1,1.035,2,0.5
10,control_stranger,18,control,stranger,1,1,0.978,2,0.5
10,control_stranger,19,control,stranger,1,1,0.633,2,0.5
10,control_stranger,20,control,stranger,0,1,3.211,2,0.5
10,control_stranger,21,control,stranger,1,1,1.029,2,0.5
10,control_stranger,22,control,stranger,1,1,1.049,2,0.5
10,control_stranger,23,control,stranger,1,1,0.85,2,0.5
10,control_stranger,24,control,stranger,0,0,1.811,2,0.5
10,control_stranger,25,control,stranger,0,0,1.143,2,0.5
10,control_stranger,26,control,stranger,1,0,1.762,2,0.5
10,control_stranger,27,control,stranger,0,1,1.076,2,0.5
10,control_stranger,28,control,stranger,0,1,0.958,2,0.5
10,control_stranger,29,control,stranger,0,1,1.013,2,0.5
10,control_stranger,30,control,stranger,0,0,1.618,2,0.5
10,control_stranger,31,control,stranger,1,0,1.172,2,0.5
10,control_stranger,32,control,stranger,1,1,0.763,2,0.5
10,control_stranger,33,control,stranger,1,0,1.801,2,0.5
10,control_stranger,34,control,stranger,0,1,0.832,2,0.5
10,control_stranger,35,control,stranger,0,1,1.047,2,0.5
10,control_stranger,36,control,stranger,0,0,0.646,2,0.5
10,control_stranger,37,control,stranger,0,1,0.816,2,0.5
10,control_stranger,38,control,stranger,0,0,0.927,2,0.5
10,control_stranger,39,control,stranger,1,0,0.645,2,0.5
10,control_stranger,40,control,stranger,0,0,1.499,2,0.5
10,control_stranger,41,control,stranger,0,1,1.074,2,0.5
10,control_stranger,42,control,stranger,0,1,0.662,2,0.5
10,control_stranger,43,control,stranger,0,1,0.74,2,0.5
10,control_stranger,44,control,stranger,0,1,1.207,2,0.5
10,control_stranger,45,control,stranger,1,0,1.118,2,0.5
10,control_stranger,46,control,stranger,0,1,1.063,2,0.5
10,control_stranger,47,control,stranger,1,0,0.96,2,0.5
10,control_stranger,48,control,stranger,1,0,0.868,2,0.5
10,control_stranger,49,control,stranger,0,1,0.637,2,0.5
10,control_stranger,50,control,stranger,0,0,0.847,2,0.5
10,surprise_self,1,surprise,self,1,1,2.718,3,0.5
10,surprise_self,2,surprise,self,1,1,1,3,0.5
10,surprise_self,3,surprise,self,1,1,3.494,3,0.5
10,surprise_self,4,surprise,self,1,0,2.745,3,0.5
10,surprise_self,5,surprise,self,1,1,1.957,3,0.5
10,surprise_self,6,surprise,self,0,1,1.756,3,0.5
10,surprise_self,7,surprise,self,0,0,2.79,3,0.5
10,surprise_self,8,surprise,self,1,1,0.792,3,0.5
10,surprise_self,9,surprise,self,0,0,3.573,3,0.5
10,surprise_self,10,surprise,self,1,1,4.071,3,0.5
10,surprise_self,11,surprise,self,1,0,1.18,3,0.5
10,surprise_self,12,surprise,self,0,0,1.621,3,0.5
10,surprise_self,13,surprise,self,1,1,1.711,3,0.5
10,surprise_self,14,surprise,self,1,1,1.08,3,0.5
10,surprise_self,15,surprise,self,0,0,1.884,3,0.5
10,surprise_self,16,surprise,self,0,0,1.759,3,0.5
10,surprise_self,17,surprise,self,0,0,1.56,3,0.5
10,surprise_self,18,surprise,self,1,1,1.105,3,0.5
10,surprise_self,19,surprise,self,1,1,0.544,3,0.5
10,surprise_self,20,surprise,self,1,0,1.958,3,0.5
10,surprise_self,21,surprise,self,0,0,0.769,3,0.5
10,surprise_self,22,surprise,self,1,1,1.13,3,0.5
10,surprise_self,23,surprise,self,1,1,0.628,3,0.5
10,surprise_self,24,surprise,self,0,1,0.858,3,0.5
10,surprise_self,25,surprise,self,1,1,0.89,3,0.5
10,surprise_self,26,surprise,self,1,0,1.242,3,0.5
10,surprise_self,27,surprise,self,0,0,1.025,3,0.5
10,surprise_self,28,surprise,self,0,1,0.669,3,0.5
10,surprise_self,29,surprise,self,0,1,0.952,3,0.5
10,surprise_self,30,surprise,self,1,0,2.072,3,0.5
10,surprise_self,31,surprise,self,1,0,1.188,3,0.5
10,surprise_self,32,surprise,self,0,1,0.799,3,0.5
10,surprise_self,33,surprise,self,0,1,0.491,3,0.5
10,surprise_self,34,surprise,self,0,0,1.494,3,0.5
10,surprise_self,35,surprise,self,1,1,0.605,3,0.5
10,surprise_self,36,surprise,self,1,0,0.943,3,0.5
10,surprise_self,37,surprise,self,0,0,0.754,3,0.5
10,surprise_self,38,surprise,self,1,0,2.095,3,0.5
10,surprise_self,39,surprise,self,0,1,0.758,3,0.5
10,surprise_self,40,surprise,self,0,1,1.695,3,0.5
10,surprise_self,41,surprise,self,0,1,0.835,3,0.5
10,surprise_self,42,surprise,self,0,1,1.091,3,0.5
10,surprise_self,43,surprise,self,0,1,0.591,3,0.5
10,surprise_self,44,surprise,self,0,1,1.281,3,0.5
10,surprise_self,45,surprise,self,0,1,1.302,3,0.5
10,surprise_self,46,surprise,self,1,0,1.414,3,0.5
10,surprise_self,47,surprise,self,0,1,0.763,3,0.5
10,surprise_self,48,surprise,self,0,0,0.81,3,0.5
10,surprise_self,49,surprise,self,0,1,0.78,3,0.5
10,surprise_self,50,surprise,self,0,1,1.215,3,0.5
10,surprise_stranger,1,surprise,stranger,0,0,2.734,4,0.5
10,surprise_stranger,2,surprise,stranger,1,1,1.437,4,0.5
10,surprise_stranger,3,surprise,stranger,0,0,0.363,4,0.5
10,surprise_stranger,4,surprise,stranger,1,1,0.978,4,0.5
10,surprise_stranger,5,surprise,stranger,1,1,0.711,4,0.5
10,surprise_stranger,6,surprise,stranger,1,1,0.706,4,0.5
10,surprise_stranger,7,surprise,stranger,1,1,0.643,4,0.5
10,surprise_stranger,8,surprise,stranger,1,1,2.658,4,0.5
10,surprise_stranger,9,surprise,stranger,0,1,1.57,4,0.5
10,surprise_stranger,10,surprise,stranger,0,0,0.658,4,0.5
10,surprise_stranger,11,surprise,stranger,1,1,0.745,4,0.5
10,surprise_stranger,12,surprise,stranger,1,1,0.388,4,0.5
10,surprise_stranger,13,surprise,stranger,1,0,0.99,4,0.5
10,surprise_stranger,14,surprise,stranger,0,0,1.229,4,0.5
10,surprise_stranger,15,surprise,stranger,1,0,0.462,4,0.5
10,surprise_stranger,16,surprise,stranger,0,1,0.415,4,0.5
10,surprise_stranger,17,surprise,stranger,0,0,1.13,4,0.5
10,surprise_stranger,18,surprise,stranger,0,0,0.905,4,0.5
10,surprise_stranger,19,surprise,stranger,0,1,1.528,4,0.5
10,surprise_stranger,20,surprise,stranger,0,0,1.09,4,0.5
10,surprise_stranger,21,surprise,stranger,1,1,1.04,4,0.5
10,surprise_stranger,22,surprise,stranger,1,1,1.459,4,0.5
10,surprise_stranger,23,surprise,stranger,1,1,1.171,4,0.5
10,surprise_stranger,24,surprise,stranger,1,1,0.918,4,0.5
10,surprise_stranger,25,surprise,stranger,1,1,1.436,4,0.5
10,surprise_stranger,26,surprise,stranger,1,0,0.489,4,0.5
10,surprise_stranger,27,surprise,stranger,0,0,0.715,4,0.5
10,surprise_stranger,28,surprise,stranger,0,0,1.398,4,0.5
10,surprise_stranger,29,surprise,stranger,0,1,0.911,4,0.5
10,surprise_stranger,30,surprise,stranger,0,0,0.91,4,0.5
10,surprise_stranger,31,surprise,stranger,1,0,0.752,4,0.5
10,surprise_stranger,32,surprise,stranger,1,0,0.554,4,0.5
10,surprise_stranger,33,surprise,stranger,1,0,6.39,4,0.5
10,surprise_stranger,34,surprise,stranger,0,0,0.785,4,0.5
10,surprise_stranger,35,surprise,stranger,0,1,0.578,4,0.5
10,surprise_stranger,36,surprise,stranger,0,1,0.547,4,0.5
10,surprise_stranger,37,surprise,stranger,0,1,0.866,4,0.5
10,surprise_stranger,38,surprise,stranger,0,1,0.972,4,0.5
10,surprise_stranger,39,surprise,stranger,0,1,1.097,4,0.5
10,surprise_stranger,40,surprise,stranger,0,0,1.061,4,0.5
10,surprise_stranger,41,surprise,stranger,1,0,0.384,4,0.5
10,surprise_stranger,42,surprise,stranger,1,0,0.654,4,0.5
10,surprise_stranger,43,surprise,stranger,0,0,0.625,4,0.5
10,surprise_stranger,44,surprise,stranger,0,1,0.924,4,0.5
10,surprise_stranger,45,surprise,stranger,0,1,0.655,4,0.5
10,surprise_stranger,46,surprise,stranger,0,1,1.246,4,0.5
10,surprise_stranger,47,surprise,stranger,0,1,0.687,4,0.5
10,surprise_stranger,48,surprise,stranger,0,1,0.826,4,0.5
10,surprise_stranger,49,surprise,stranger,0,0,0.824,4,0.5
10,surprise_stranger,50,surprise,stranger,1,0,1.023,4,0.5
11,control_stranger,1,control,stranger,0,1,3.089,2,0.5
11,control_stranger,2,control,stranger,1,0,0.5,2,0.5
11,control_stranger,3,control,stranger,0,0,1.16,2,0.5
11,control_stranger,4,control,stranger,1,1,1.367,2,0.5
11,control_stranger,5,control,stranger,0,0,0.89,2,0.5
11,control_stranger,6,control,stranger,0,1,0.83,2,0.5
11,control_stranger,7,control,stranger,1,1,0.713,2,0.5
11,control_stranger,8,control,stranger,0,0,1.128,2,0.5
11,control_stranger,9,control,stranger,0,0,0.701,2,0.5
11,control_stranger,10,control,stranger,0,0,0.842,2,0.5
11,control_stranger,11,control,stranger,0,0,2.584,2,0.5
11,control_stranger,12,control,stranger,1,1,0.469,2,0.5
11,control_stranger,13,control,stranger,1,1,0.474,2,0.5
11,control_stranger,14,control,stranger,1,0,0.364,2,0.5
11,control_stranger,15,control,stranger,0,0,0.794,2,0.5
11,control_stranger,16,control,stranger,0,0,0.856,2,0.5
11,control_stranger,17,control,stranger,0,0,1.232,2,0.5
11,control_stranger,18,control,stranger,1,1,1.872,2,0.5
11,control_stranger,19,control,stranger,1,1,0.447,2,0.5
11,control_stranger,20,control,stranger,0,0,2.505,2,0.5
11,control_stranger,21,control,stranger,1,1,1.498,2,0.5
11,control_stranger,22,control,stranger,1,1,1.728,2,0.5
11,control_stranger,23,control,stranger,1,0,3.458,2,0.5
11,control_stranger,24,control,stranger,0,0,1.058,2,0.5
11,control_stranger,25,control,stranger,1,1,1.039,2,0.5
11,control_stranger,26,control,stranger,1,0,0.508,2,0.5
11,control_stranger,27,control,stranger,1,0,1.014,2,0.5
11,control_stranger,28,control,stranger,0,1,0.36,2,0.5
11,control_stranger,29,control,stranger,0,0,1.679,2,0.5
11,control_stranger,30,control,stranger,0,0,0.773,2,0.5
11,control_stranger,31,control,stranger,1,0,1.019,2,0.5
11,control_stranger,32,control,stranger,1,0,0.601,2,0.5
11,control_stranger,33,control,stranger,0,1,0.642,2,0.5
11,control_stranger,34,control,stranger,0,1,0.584,2,0.5
11,control_stranger,35,control,stranger,1,0,2.55,2,0.5
11,control_stranger,36,control,stranger,1,0,1.083,2,0.5
11,control_stranger,37,control,stranger,0,1,0.601,2,0.5
11,control_stranger,38,control,stranger,0,1,0.933,2,0.5
11,control_stranger,39,control,stranger,0,0,0.837,2,0.5
11,control_stranger,40,control,stranger,0,0,1.22,2,0.5
11,control_stranger,41,control,stranger,1,0,0.794,2,0.5
11,control_stranger,42,control,stranger,0,0,1.008,2,0.5
11,control_stranger,43,control,stranger,1,0,1.111,2,0.5
11,control_stranger,44,control,stranger,0,1,0.659,2,0.5
11,control_stranger,45,control,stranger,0,0,0.595,2,0.5
11,control_stranger,46,control,stranger,0,1,0.985,2,0.5
11,control_stranger,47,control,stranger,0,1,0.947,2,0.5
11,control_stranger,48,control,stranger,0,1,0.901,2,0.5
11,control_stranger,49,control,stranger,0,1,0.757,2,0.5
11,control_stranger,50,control,stranger,0,1,0.623,2,0.5
11,surprise_stranger,1,surprise,stranger,0,0,0.213,4,0.5
11,surprise_stranger,2,surprise,stranger,0,0,1.191,4,0.5
11,surprise_stranger,3,surprise,stranger,1,1,1.115,4,0.5
11,surprise_stranger,4,surprise,stranger,1,1,1.214,4,0.5
11,surprise_stranger,5,surprise,stranger,1,1,0.807,4,0.5
11,surprise_stranger,6,surprise,stranger,1,1,0.944,4,0.5
11,surprise_stranger,7,surprise,stranger,1,1,1.13,4,0.5
11,surprise_stranger,8,surprise,stranger,1,0,0.58,4,0.5
11,surprise_stranger,9,surprise,stranger,0,0,1.108,4,0.5
11,surprise_stranger,10,surprise,stranger,0,0,1.314,4,0.5
11,surprise_stranger,11,surprise,stranger,0,0,0.97,4,0.5
11,surprise_stranger,12,surprise,stranger,0,0,0.459,4,0.5
11,surprise_stranger,13,surprise,stranger,0,0,1.821,4,0.5
11,surprise_stranger,14,surprise,stranger,1,1,0.677,4,0.5
11,surprise_stranger,15,surprise,stranger,1,1,0.435,4,0.5
11,surprise_stranger,16,surprise,stranger,1,1,1.163,4,0.5
11,surprise_stranger,17,surprise,stranger,1,1,0.878,4,0.5
11,surprise_stranger,18,surprise,stranger,1,1,0.728,4,0.5
11,surprise_stranger,19,surprise,stranger,1,1,0.796,4,0.5
11,surprise_stranger,20,surprise,stranger,0,0,1.615,4,0.5
11,surprise_stranger,21,surprise,stranger,0,0,2.38,4,0.5
11,surprise_stranger,22,surprise,stranger,1,0,1.07,4,0.5
11,surprise_stranger,23,surprise,stranger,0,1,2.158,4,0.5
11,surprise_stranger,24,surprise,stranger,0,1,0.903,4,0.5
11,surprise_stranger,25,surprise,stranger,0,0,0.872,4,0.5
11,surprise_stranger,26,surprise,stranger,0,1,0.855,4,0.5
11,surprise_stranger,27,surprise,stranger,0,1,1.82,4,0.5
11,surprise_stranger,28,surprise,stranger,0,0,0.963,4,0.5
11,surprise_stranger,29,surprise,stranger,1,0,0.885,4,0.5
11,surprise_stranger,30,surprise,stranger,0,1,2.136,4,0.5
11,surprise_stranger,31,surprise,stranger,0,0,1.045,4,0.5
11,surprise_stranger,32,surprise,stranger,1,1,1.335,4,0.5
11,surprise_stranger,33,surprise,stranger,0,1,0.974,4,0.5
11,surprise_stranger,34,surprise,stranger,0,1,1.106,4,0.5
11,surprise_stranger,35,surprise,stranger,0,1,0.66,4,0.5
11,surprise_stranger,36,surprise,stranger,0,0,0.605,4,0.5
11,surprise_stranger,37,surprise,stranger,0,1,0.69,4,0.5
11,surprise_stranger,38,surprise,stranger,0,1,0.86,4,0.5
11,surprise_stranger,39,surprise,stranger,0,1,0.746,4,0.5
11,surprise_stranger,40,surprise,stranger,0,1,1.0145,4,0.5
11,surprise_stranger,41,surprise,stranger,1,0,0.871,4,0.5
11,surprise_stranger,42,surprise,stranger,1,0,0.348,4,0.5
11,surprise_stranger,43,surprise,stranger,0,1,0.371,4,0.5
11,surprise_stranger,44,surprise,stranger,0,1,1.022,4,0.5
11,surprise_stranger,45,surprise,stranger,0,1,1.034,4,0.5
11,surprise_stranger,46,surprise,stranger,1,0,0.364,4,0.5
11,surprise_stranger,47,surprise,stranger,0,1,0.538,4,0.5
11,surprise_stranger,48,surprise,stranger,0,1,0.383,4,0.5
11,surprise_stranger,49,surprise,stranger,0,1,0.699,4,0.5
11,surprise_stranger,50,surprise,stranger,0,0,0.739,4,0.5
12,control_self,1,control,self,0,1,2.4723527431488,1,0.5
12,control_self,2,control,self,0,1,1.98919630050659,1,0.5
12,control_self,3,control,self,0,1,1.23203659057617,1,0.5
12,control_self,4,control,self,0,1,1.23799729347229,1,0.5
12,control_self,5,control,self,0,1,2.29402995109558,1,0.5
12,control_self,6,control,self,0,1,0.585098028182983,1,0.5
12,control_self,7,control,self,0,1,0.423964977264404,1,0.5
12,control_self,8,control,self,0,1,0.646998405456543,1,0.5
12,control_self,9,control,self,0,1,1.12699770927429,1,0.5
12,control_self,10,control,self,0,0,0.447998285293579,1,0.5
12,control_self,11,control,self,1,0,3.39799189567566,1,0.5
12,control_self,12,control,self,1,0,1.18796396255493,1,0.5
12,control_self,13,control,self,0,1,1.94638657569885,1,0.5
12,control_self,14,control,self,0,1,1.29199600219727,1,0.5
12,control_self,15,control,self,0,1,0.757000207901001,1,0.5
12,control_self,16,control,self,0,0,0.69394040107727,1,0.5
12,control_self,17,control,self,0,1,3.31438302993774,1,0.5
12,control_self,18,control,self,0,1,0.592038154602051,1,0.5
12,control_self,19,control,self,0,1,0.756261348724365,1,0.5
12,control_self,20,control,self,0,1,1.08903121948242,1,0.5
12,control_self,21,control,self,0,1,4.14629507064819,1,0.5
12,control_self,22,control,self,0,1,0.6549973487854,1,0.5
12,control_self,23,control,self,0,1,1.19799375534058,1,0.5
12,control_self,24,control,self,0,1,1.14899945259094,1,0.5
12,control_self,25,control,self,0,1,1.57460403442383,1,0.5
12,control_self,26,control,self,0,0,4.57317137718201,1,0.5
12,control_self,27,control,self,0,1,1.9559907913208,1,0.5
12,control_self,28,control,self,0,1,0.82003378868103,1,0.5
12,control_self,29,control,self,0,0,2.03937864303589,1,0.5
12,control_self,30,control,self,0,0,0.877902269363403,1,0.5
12,control_self,31,control,self,0,0,0.564962387084961,1,0.5
12,control_self,32,control,self,0,1,0.952963352203369,1,0.5
12,control_self,33,control,self,0,1,0.627870321273804,1,0.5
12,control_self,34,control,self,0,0,0.451999425888062,1,0.5
12,control_self,35,control,self,0,0,0.749083995819092,1,0.5
12,control_self,36,control,self,0,1,2.0361487865448,1,0.5
12,control_self,37,control,self,0,0,1.06523299217224,1,0.5
12,control_self,38,control,self,1,1,1.40837216377258,1,0.5
12,control_self,39,control,self,1,1,3.71031188964844,1,0.5
12,control_self,40,control,self,1,1,1.8052613735199,1,0.5
12,control_self,41,control,self,1,1,2.85135698318481,1,0.5
12,control_self,42,control,self,1,1,1.26400661468506,1,0.5
12,control_self,43,control,self,1,1,1.41696405410767,1,0.5
12,control_self,44,control,self,1,1,1.47299599647522,1,0.5
12,control_self,45,control,self,1,1,1.5839958190918,1,0.5
12,control_self,46,control,self,1,1,3.76670050621033,1,0.5
12,control_self,47,control,self,1,1,1.58199548721313,1,0.5
12,control_self,48,control,self,1,1,1.59596180915833,1,0.5
12,control_self,49,control,self,1,1,2.0646185874939,1,0.5
12,control_self,50,control,self,1,1,1.10899829864502,1,0.5
12,control_stranger,1,control,stranger,1,0,1.81785655021667,2,0.5
12,control_stranger,2,control,stranger,0,1,1.06196308135986,2,0.5
12,control_stranger,3,control,stranger,1,0,1.39399719238281,2,0.5
12,control_stranger,4,control,stranger,0,1,1.57399535179138,2,0.5
12,control_stranger,5,control,stranger,0,1,1.76799583435059,2,0.5
12,control_stranger,6,control,stranger,0,1,1.51111483573914,2,0.5
12,control_stranger,7,control,stranger,0,0,1.14596796035767,2,0.5
12,control_stranger,8,control,stranger,1,0,0.832085371017456,2,0.5
12,control_stranger,9,control,stranger,0,1,1.49299716949463,2,0.5
12,control_stranger,10,control,stranger,0,1,1.22799587249756,2,0.5
12,control_stranger,11,control,stranger,0,1,1.86299586296082,2,0.5
12,control_stranger,12,control,stranger,0,0,1.22796225547791,2,0.5
12,control_stranger,13,control,stranger,0,0,0.929998397827148,2,0.5
12,control_stranger,14,control,stranger,1,0,1.32699775695801,2,0.5
12,control_stranger,15,control,stranger,0,1,1.03300905227661,2,0.5
12,control_stranger,16,control,stranger,0,1,0.947962522506714,2,0.5
12,control_stranger,17,control,stranger,0,1,0.897032976150513,2,0.5
12,control_stranger,18,control,stranger,0,1,1.75502324104309,2,0.5
12,control_stranger,19,control,stranger,0,0,1.10099840164185,2,0.5
12,control_stranger,20,control,stranger,0,1,0.75696611404419,2,0.5
12,control_stranger,21,control,stranger,0,0,1.05999779701233,2,0.5
12,control_stranger,22,control,stranger,1,0,1.46007323265076,2,0.5
12,control_stranger,23,control,stranger,0,1,0.711996793746948,2,0.5
12,control_stranger,24,control,stranger,0,1,0.736996412277222,2,0.5
12,control_stranger,25,control,stranger,0,0,1.66899538040161,2,0.5
12,control_stranger,26,control,stranger,0,0,0.655998706817627,2,0.5
12,control_stranger,27,control,stranger,1,1,1.87458395957947,2,0.5
12,control_stranger,28,control,stranger,1,1,0.372999429702759,2,0.5
12,control_stranger,29,control,stranger,1,1,0.918998956680298,2,0.5
12,control_stranger,30,control,stranger,1,1,0.730965614318848,2,0.5
12,control_stranger,31,control,stranger,1,1,0.808099746704102,2,0.5
12,control_stranger,32,control,stranger,1,1,0.628963708877563,2,0.5
12,control_stranger,33,control,stranger,0,0,1.53699612617493,2,0.5
12,control_stranger,34,control,stranger,1,0,0.932993173599243,2,0.5
12,control_stranger,35,control,stranger,0,0,0.866998672485352,2,0.5
12,control_stranger,36,control,stranger,0,0,2.22214818000793,2,0.5
12,control_stranger,37,control,stranger,0,0,2.51299428939819,2,0.5
12,control_stranger,38,control,stranger,1,1,0.988998174667358,2,0.5
12,control_stranger,39,control,stranger,1,1,0.801998615264893,2,0.5
12,control_stranger,40,control,stranger,1,1,0.74800181388855,2,0.5
12,control_stranger,41,control,stranger,1,1,0.697196245193481,2,0.5
12,control_stranger,42,control,stranger,1,1,1.32299780845642,2,0.5
12,control_stranger,43,control,stranger,1,1,0.616937398910522,2,0.5
12,control_stranger,44,control,stranger,1,0,0.80904746055603,2,0.5
12,control_stranger,45,control,stranger,1,1,0.624998807907104,2,0.5
12,control_stranger,46,control,stranger,1,1,1.9570631980896,2,0.5
12,control_stranger,47,control,stranger,1,1,0.806153774261475,2,0.5
12,control_stranger,48,control,stranger,1,1,0.478034734725952,2,0.5
12,control_stranger,49,control,stranger,1,1,0.601970195770264,2,0.5
12,control_stranger,50,control,stranger,1,1,0.813998222351074,2,0.5
12,surprise_self,1,surprise,self,1,0,5.90797758102417,3,0.5
12,surprise_self,2,surprise,self,1,0,7.24605011940002,3,0.5
12,surprise_self,3,surprise,self,0,1,7.24204874038696,3,0.5
12,surprise_self,4,surprise,self,0,1,2.71714234352112,3,0.5
12,surprise_self,5,surprise,self,0,1,6.69929194450378,3,0.5
12,surprise_self,6,surprise,self,0,1,1.31099462509155,3,0.5
12,surprise_self,7,surprise,self,0,1,1.86814618110657,3,0.5
12,surprise_self,8,surprise,self,0,1,1.87378168106079,3,0.5
12,surprise_self,9,surprise,self,0,1,1.62201738357544,3,0.5
12,surprise_self,10,surprise,self,0,0,1.1659951210022,3,0.5
12,surprise_self,11,surprise,self,0,1,3.33401870727539,3,0.5
12,surprise_self,12,surprise,self,0,1,2.09946179389954,3,0.5
12,surprise_self,13,surprise,self,0,1,2.7239933013916,3,0.5
12,surprise_self,14,surprise,self,0,1,1.38596177101135,3,0.5
12,surprise_self,15,surprise,self,1,0,1.00299644470215,3,0.5
12,surprise_self,16,surprise,self,0,1,1.23096442222595,3,0.5
12,surprise_self,17,surprise,self,0,1,1.75603127479553,3,0.5
12,surprise_self,18,surprise,self,0,1,0.791197538375854,3,0.5
12,surprise_self,19,surprise,self,0,1,1.36848855018616,3,0.5
12,surprise_self,20,surprise,self,0,1,0.699079751968384,3,0.5
12,surprise_self,21,surprise,self,0,1,2.32502889633179,3,0.5
12,surprise_self,22,surprise,self,0,1,1.71402263641357,3,0.5
12,surprise_self,23,surprise,self,0,0,3.04442501068115,3,0.5
12,surprise_self,24,surprise,self,0,1,2.1749951839447,3,0.5
12,surprise_self,25,surprise,self,0,1,3.18639016151428,3,0.5
12,surprise_self,26,surprise,self,0,0,2.07299423217773,3,0.5
12,surprise_self,27,surprise,self,0,1,2.1709623336792,3,0.5
12,surprise_self,28,surprise,self,0,0,3.2599573135376,3,0.5
12,surprise_self,29,surprise,self,0,0,1.9739944934845,3,0.5
12,surprise_self,30,surprise,self,1,1,6.9681224822998,3,0.5
12,surprise_self,31,surprise,self,1,1,2.34399509429932,3,0.5
12,surprise_self,32,surprise,self,1,1,1.32695865631104,3,0.5
12,surprise_self,33,surprise,self,1,0,1.46817493438721,3,0.5
12,surprise_self,34,surprise,self,0,0,1.07496333122253,3,0.5
12,surprise_self,35,surprise,self,1,1,1.23217916488647,3,0.5
12,surprise_self,36,surprise,self,1,1,2.23816084861755,3,0.5
12,surprise_self,37,surprise,self,1,1,6.68669509887695,3,0.5
12,surprise_self,38,surprise,self,1,1,1.09499764442444,3,0.5
12,surprise_self,39,surprise,self,1,1,1.21023654937744,3,0.5
12,surprise_self,40,surprise,self,1,1,0.859099864959717,3,0.5
12,surprise_self,41,surprise,self,1,1,0.999998331069946,3,0.5
12,surprise_self,42,surprise,self,1,1,0.792999505996704,3,0.5
12,surprise_self,43,surprise,self,1,1,9.22497844696045,3,0.5
12,surprise_self,44,surprise,self,1,0,1.34349703788757,3,0.5
12,surprise_self,45,surprise,self,1,1,1.18477201461792,3,0.5
12,surprise_self,46,surprise,self,0,0,1.24899792671204,3,0.5
12,surprise_self,47,surprise,self,1,1,1.1209979057312,3,0.5
12,surprise_self,48,surprise,self,1,0,0.687120914459229,3,0.5
12,surprise_self,49,surprise,self,0,0,1.41599822044373,3,0.5
12,surprise_self,50,surprise,self,1,1,1.19499897956848,3,0.5
12,surprise_stranger,1,surprise,stranger,1,1,2.49602103233337,4,0.5
12,surprise_stranger,2,surprise,stranger,1,1,1.65497779846191,4,0.5
12,surprise_stranger,3,surprise,stranger,1,0,1.84399628639221,4,0.5
12,surprise_stranger,4,surprise,stranger,1,0,0.975063323974609,4,0.5
12,surprise_stranger,5,surprise,stranger,0,1,2.18081498146057,4,0.5
12,surprise_stranger,6,surprise,stranger,0,1,0.810000896453857,4,0.5
12,surprise_stranger,7,surprise,stranger,0,1,1.40329670906067,4,0.5
12,surprise_stranger,8,surprise,stranger,0,1,0.848922967910767,4,0.5
12,surprise_stranger,9,surprise,stranger,0,0,2.68003606796265,4,0.5
12,surprise_stranger,10,surprise,stranger,1,1,0.62299919128418,4,0.5
12,surprise_stranger,11,surprise,stranger,1,0,2.05033135414124,4,0.5
12,surprise_stranger,12,surprise,stranger,0,1,1.01299691200256,4,0.5
12,surprise_stranger,13,surprise,stranger,0,1,1.50499606132507,4,0.5
12,surprise_stranger,14,surprise,stranger,0,1,1.16196155548096,4,0.5
12,surprise_stranger,15,surprise,stranger,0,1,2.00295615196228,4,0.5
12,surprise_stranger,16,surprise,stranger,0,1,2.36747336387634,4,0.5
12,surprise_stranger,17,surprise,stranger,0,1,0.630902767181396,4,0.5
12,surprise_stranger,18,surprise,stranger,1,0,0.0249998569488525,4,0.5
12,surprise_stranger,19,surprise,stranger,0,1,2.35796046257019,4,0.5
12,surprise_stranger,20,surprise,stranger,0,0,3.0799572467804,4,0.5
12,surprise_stranger,21,surprise,stranger,0,1,4.09812188148499,4,0.5
12,surprise_stranger,22,surprise,stranger,0,1,0.696040391921997,4,0.5
12,surprise_stranger,23,surprise,stranger,0,0,0.42096471786499,4,0.5
12,surprise_stranger,24,surprise,stranger,1,0,0.551969051361084,4,0.5
12,surprise_stranger,25,surprise,stranger,0,1,2.68107652664185,4,0.5
12,surprise_stranger,26,surprise,stranger,0,0,1.46306395530701,4,0.5
12,surprise_stranger,27,surprise,stranger,1,1,0.946508407592773,4,0.5
12,surprise_stranger,28,surprise,stranger,1,1,0.854032278060913,4,0.5
12,surprise_stranger,29,surprise,stranger,1,1,1.08109164237976,4,0.5
12,surprise_stranger,30,surprise,stranger,1,1,1.0680136680603,4,0.5
12,surprise_stranger,31,surprise,stranger,1,1,0.980130434036255,4,0.5
12,surprise_stranger,32,surprise,stranger,1,0,1.80599689483643,4,0.5
12,surprise_stranger,33,surprise,stranger,1,1,1.96930980682373,4,0.5
12,surprise_stranger,34,surprise,stranger,1,1,0.826959848403931,4,0.5
12,surprise_stranger,35,surprise,stranger,1,1,2.08099555969238,4,0.5
12,surprise_stranger,36,surprise,stranger,1,1,1.50423288345337,4,0.5
12,surprise_stranger,37,surprise,stranger,1,1,1.22296905517578,4,0.5
12,surprise_stranger,38,surprise,stranger,1,1,1.48931097984314,4,0.5
12,surprise_stranger,39,surprise,stranger,1,1,0.989996194839478,4,0.5
12,surprise_stranger,40,surprise,stranger,1,1,1.25613069534302,4,0.5
12,surprise_stranger,41,surprise,stranger,1,1,1.02703261375427,4,0.5
12,surprise_stranger,42,surprise,stranger,0,0,0.949245691299438,4,0.5
12,surprise_stranger,43,surprise,stranger,1,1,0.647000551223755,4,0.5
12,surprise_stranger,44,surprise,stranger,1,0,0.601999282836914,4,0.5
12,surprise_stranger,45,surprise,stranger,0,0,1.50896000862122,4,0.5
12,surprise_stranger,46,surprise,stranger,1,1,2.36834812164307,4,0.5
12,surprise_stranger,47,surprise,stranger,1,0,0.798137187957764,4,0.5
12,surprise_stranger,48,surprise,stranger,0,0,1.10111999511719,4,0.5
12,surprise_stranger,49,surprise,stranger,1,1,0.83819580078125,4,0.5
12,surprise_stranger,50,surprise,stranger,0,0,0.872962713241577,4,0.5
13,control_self,1,control,self,1,1,3.76634812355042,1,0.5
13,control_self,2,control,self,1,1,2.6420681476593,1,0.5
13,control_self,3,control,self,1,1,2.46785426139832,1,0.5
13,control_self,4,control,self,1,1,1.52697563171387,1,0.5
13,control_self,5,control,self,1,1,1.46956300735474,1,0.5
13,control_self,6,control,self,1,1,2.26085615158081,1,0.5
13,control_self,7,control,self,1,1,0.649586915969849,1,0.5
13,control_self,8,control,self,1,1,0.611345291137695,1,0.5
13,control_self,9,control,self,1,1,0.770084857940674,1,0.5
13,control_self,10,control,self,1,1,0.513740301132202,1,0.5
13,control_self,11,control,self,1,1,1.92172074317932,1,0.5
13,control_self,12,control,self,1,1,0.731197595596313,1,0.5
13,control_self,13,control,self,0,0,1.05001187324524,1,0.5
13,control_self,14,control,self,1,1,0.678502082824707,1,0.5
13,control_self,15,control,self,1,1,1.22570133209229,1,0.5
13,control_self,16,control,self,1,1,0.788194179534912,1,0.5
13,control_self,17,control,self,1,1,0.419263601303101,1,0.5
13,control_self,18,control,self,1,0,0.34601902961731,1,0.5
13,control_self,19,control,self,1,1,0.466170787811279,1,0.5
13,control_self,20,control,self,1,0,0.505122184753418,1,0.5
13,control_self,21,control,self,1,0,2.09198260307312,1,0.5
13,control_self,22,control,self,1,1,2.70772576332092,1,0.5
13,control_self,23,control,self,1,1,4.58809900283813,1,0.5
13,control_self,24,control,self,1,1,0.886961936950684,1,0.5
13,control_self,25,control,self,1,1,0.845787763595581,1,0.5
13,control_self,26,control,self,1,1,1.55336403846741,1,0.5
13,control_self,27,control,self,1,0,1.25286364555359,1,0.5
13,control_self,28,control,self,0,1,2.52853727340698,1,0.5
13,control_self,29,control,self,0,1,0.802615880966187,1,0.5
13,control_self,30,control,self,1,0,1.32058453559875,1,0.5
13,control_self,31,control,self,0,1,1.24920058250427,1,0.5
13,control_self,32,control,self,0,0,1.17504000663757,1,0.5
13,control_self,33,control,self,1,0,0.793890714645386,1,0.5
13,control_self,34,control,self,1,0,0.599258184432983,1,0.5
13,control_self,35,control,self,0,0,1.98932290077209,1,0.5
13,control_self,36,control,self,1,1,1.84332609176636,1,0.5
13,control_self,37,control,self,1,0,0.919543027877808,1,0.5
13,control_self,38,control,self,0,1,0.849693536758423,1,0.5
13,control_self,39,control,self,0,1,1.41937875747681,1,0.5
13,control_self,40,control,self,0,0,1.20066714286804,1,0.5
13,control_self,41,control,self,1,0,1.94062042236328,1,0.5
13,control_self,42,control,self,1,1,0.585892200469971,1,0.5
13,control_self,43,control,self,1,0,2.06568336486816,1,0.5
13,control_self,44,control,self,1,0,1.36781692504883,1,0.5
13,control_self,45,control,self,1,0,2.15556049346924,1,0.5
13,control_self,46,control,self,1,0,0.812600135803223,1,0.5
13,control_self,47,control,self,0,1,1.49614858627319,1,0.5
13,control_self,48,control,self,1,0,0.979891538619995,1,0.5
13,control_self,49,control,self,0,1,0.909002065658569,1,0.5
13,control_self,50,control,self,1,0,1.55375576019287,1,0.5
13,control_stranger,1,control,stranger,1,1,1.31946063041687,2,0.5
13,control_stranger,2,control,stranger,1,1,0.95724081993103,2,0.5
13,control_stranger,3,control,stranger,1,1,1.32700324058533,2,0.5
13,control_stranger,4,control,stranger,1,1,1.48003005981445,2,0.5
13,control_stranger,5,control,stranger,1,1,0.749945878982544,2,0.5
13,control_stranger,6,control,stranger,1,1,0.770344495773315,2,0.5
13,control_stranger,7,control,stranger,1,0,0.849492311477661,2,0.5
13,control_stranger,8,control,stranger,0,0,0.557136058807373,2,0.5
13,control_stranger,9,control,stranger,0,1,0.800147771835327,2,0.5
13,control_stranger,10,control,stranger,0,0,1.83255577087402,2,0.5
13,control_stranger,11,control,stranger,1,0,0.862973213195801,2,0.5
13,control_stranger,12,control,stranger,0,1,0.921142578125,2,0.5
13,control_stranger,13,control,stranger,0,0,0.37851357460022,2,0.5
13,control_stranger,14,control,stranger,0,0,0.426323652267456,2,0.5
13,control_stranger,15,control,stranger,0,0,0.653641223907471,2,0.5
13,control_stranger,16,control,stranger,1,1,0.460678100585938,2,0.5
13,control_stranger,17,control,stranger,0,0,0.397334337234497,2,0.5
13,control_stranger,18,control,stranger,1,0,0.496960163116455,2,0.5
13,control_stranger,19,control,stranger,1,1,1.99452519416809,2,0.5
13,control_stranger,20,control,stranger,0,0,0.619240999221802,2,0.5
13,control_stranger,21,control,stranger,1,1,2.6681387424469,2,0.5
13,control_stranger,22,control,stranger,1,1,1.79618716239929,2,0.5
13,control_stranger,23,control,stranger,1,0,1.25155997276306,2,0.5
13,control_stranger,24,control,stranger,0,0,1.45567464828491,2,0.5
13,control_stranger,25,control,stranger,1,1,1.41304421424866,2,0.5
13,control_stranger,26,control,stranger,1,0,0.70376706123352,2,0.5
13,control_stranger,27,control,stranger,0,1,0.561416864395142,2,0.5
13,control_stranger,28,control,stranger,0,1,1.5818018913269,2,0.5
13,control_stranger,29,control,stranger,0,1,1.17345499992371,2,0.5
13,control_stranger,30,control,stranger,1,1,1.32814764976501,2,0.5
13,control_stranger,31,control,stranger,1,0,1.07765865325928,2,0.5
13,control_stranger,32,control,stranger,1,0,2.2875018119812,2,0.5
13,control_stranger,33,control,stranger,1,0,0.542708158493042,2,0.5
13,control_stranger,34,control,stranger,1,0,0.82088828086853,2,0.5
13,control_stranger,35,control,stranger,1,0,1.5318329334259,2,0.5
13,control_stranger,36,control,stranger,1,0,0.941089153289795,2,0.5
13,control_stranger,37,control,stranger,0,1,0.898691654205322,2,0.5
13,control_stranger,38,control,stranger,1,0,0.965209245681763,2,0.5
13,control_stranger,39,control,stranger,0,1,0.680102109909058,2,0.5
13,control_stranger,40,control,stranger,0,1,0.795551061630249,2,0.5
13,control_stranger,41,control,stranger,0,1,0.86051344871521,2,0.5
13,control_stranger,42,control,stranger,1,0,0.765161991119385,2,0.5
13,control_stranger,43,control,stranger,1,0,0.6549391746521,2,0.5
13,control_stranger,44,control,stranger,0,1,0.675273180007935,2,0.5
13,control_stranger,45,control,stranger,0,1,1.54621267318726,2,0.5
13,control_stranger,46,control,stranger,1,1,1.14266777038574,2,0.5
13,control_stranger,47,control,stranger,0,1,1.02329301834106,2,0.5
13,control_stranger,48,control,stranger,1,1,1.07627391815186,2,0.5
13,control_stranger,49,control,stranger,0,1,1.03088760375977,2,0.5
13,control_stranger,50,control,stranger,1,1,1.07698440551758,2,0.5
13,surprise_self,1,surprise,self,1,1,1.86894774436951,3,0.5
13,surprise_self,2,surprise,self,1,0,1.66960716247559,3,0.5
13,surprise_self,3,surprise,self,0,0,2.05886030197144,3,0.5
13,surprise_self,4,surprise,self,1,1,1.66357040405273,3,0.5
13,surprise_self,5,surprise,self,0,0,1.62687015533447,3,0.5
13,surprise_self,6,surprise,self,1,1,1.98846936225891,3,0.5
13,surprise_self,7,surprise,self,1,1,0.915962219238281,3,0.5
13,surprise_self,8,surprise,self,1,1,2.7782039642334,3,0.5
